time[s],speed[m/s],acc_x(0)[G],acc_x(1)[G],acc_x(2)[G],acc_x(3)[G],acc_x(4)[G],acc_x(5)[G],acc_x(6)[G],acc_x(7)[G],acc_x(8)[G],acc_x(9)[G],acc_x(10)[G],acc_x(11)[G],acc_x(12)[G],acc_x(13)[G],acc_x(14)[G],acc_x(15)[G],acc_x(16)[G],acc_x(17)[G],acc_x(18)[G],acc_x(19)[G],acc_x(20)[G],acc_x(21)[G],acc_x(22)[G],acc_x(23)[G],acc_x(24)[G],acc_x(25)[G],acc_x(26)[G],acc_x(27)[G],acc_x(28)[G],acc_x(29)[G],acc_x(30)[G],acc_x(31)[G],acc_x(32)[G],acc_x(33)[G],acc_x(34)[G],acc_x(35)[G],acc_x(36)[G],acc_x(37)[G],acc_x(38)[G],acc_x(39)[G],acc_x(40)[G],acc_x(41)[G],acc_x(42)[G],acc_x(43)[G],acc_x(44)[G],acc_x(45)[G],acc_x(46)[G],acc_x(47)[G],acc_x(48)[G],acc_x(49)[G],acc_y(0)[G],acc_y(1)[G],acc_y(2)[G],acc_y(3)[G],acc_y(4)[G],acc_y(5)[G],acc_y(6)[G],acc_y(7)[G],acc_y(8)[G],acc_y(9)[G],acc_y(10)[G],acc_y(11)[G],acc_y(12)[G],acc_y(13)[G],acc_y(14)[G],acc_y(15)[G],acc_y(16)[G],acc_y(17)[G],acc_y(18)[G],acc_y(19)[G],acc_y(20)[G],acc_y(21)[G],acc_y(22)[G],acc_y(23)[G],acc_y(24)[G],acc_y(25)[G],acc_y(26)[G],acc_y(27)[G],acc_y(28)[G],acc_y(29)[G],acc_y(30)[G],acc_y(31)[G],acc_y(32)[G],acc_y(33)[G],acc_y(34)[G],acc_y(35)[G],acc_y(36)[G],acc_y(37)[G],acc_y(38)[G],acc_y(39)[G],acc_y(40)[G],acc_y(41)[G],acc_y(42)[G],acc_y(43)[G],acc_y(44)[G],acc_y(45)[G],acc_y(46)[G],acc_y(47)[G],acc_y(48)[G],acc_y(49)[G],acc_z(0)[G],acc_z(1)[G],acc_z(2)[G],acc_z(3)[G],acc_z(4)[G],acc_z(5)[G],acc_z(6)[G],acc_z(7)[G],acc_z(8)[G],acc_z(9)[G],acc_z(10)[G],acc_z(11)[G],acc_z(12)[G],acc_z(13)[G],acc_z(14)[G],acc_z(15)[G],acc_z(16)[G],acc_z(17)[G],acc_z(18)[G],acc_z(19)[G],acc_z(20)[G],acc_z(21)[G],acc_z(22)[G],acc_z(23)[G],acc_z(24)[G],acc_z(25)[G],acc_z(26)[G],acc_z(27)[G],acc_z(28)[G],acc_z(29)[G],acc_z(30)[G],acc_z(31)[G],acc_z(32)[G],acc_z(33)[G],acc_z(34)[G],acc_z(35)[G],acc_z(36)[G],acc_z(37)[G],acc_z(38)[G],acc_z(39)[G],acc_z(40)[G],acc_z(41)[G],acc_z(42)[G],acc_z(43)[G],acc_z(44)[G],acc_z(45)[G],acc_z(46)[G],acc_z(47)[G],acc_z(48)[G],acc_z(49)[G],
0, 0.03917640186349091, 0.0518571418367347, 0.0518571418367347, 0.04006122448979592, 0.034479589795918364, 0.0038877551020408165, 0.0165, 0.0165, 0.012693877551020407, -0.026510203061224487, -0.06686734285714285, -0.014122448979591836, -0.014122448979591836, 0.033010202040816325, 0.06132653163265306, 0.04980612142857142, 0.07041836224489796, 0.07041836224489796, 0.08510203979591836, 0.0700714275510204, 0.07959183367346938, 0.06718367346938775, 0.05439796020408162, 0.05439796020408162, 0.04781632448979592, 0.03955102040816326, 0.03981632551020408, 0.0475714275510204, 0.0475714275510204, 0.023857141836734694, 0.034173468367346936, 0.009224489795918367, 0.0021632653061224487, 0.0021632653061224487, 0.021795917346938774, 0.05125509795918367, 0.053112244897959175, 0.05573469183673469, 0.05573469183673469, 0.05838775510204082, 0.06972448571428572, 0.07971428469387754, 0.05731632551020408, 0.05731632551020408, 0.04987755, 0.06147958775510203, 0.06624489387755102, 0.04695918163265306, 0.05763264897959183, 0.05763264897959183, 0.04765305918367346, -0.013010204081632653, -0.013010204081632653, -0.03154081632653061, -0.030989795918367348, -0.02937755102040816, -0.058122447959183664, -0.058122447959183664, -0.07506122346938775, -0.0974081612244898, -0.02258163163265306, -0.003193877551020408, -0.003193877551020408, 0.05373469387755101, 0.08051020102040815, 0.08674489591836734, 0.07362244693877551, 0.07362244693877551, 0.0712142857142857, 0.06063264897959183, 0.05660203673469387, 0.06183673571428571, 0.05175510204081632, 0.05175510204081632, 0.06524489897959183, 0.06373469285714285, 0.06088775612244897, 0.057010201020408165, 0.057010201020408165, 0.05317346734693877, 0.058979592857142854, 0.052040815306122444, 0.04227550918367347, 0.04227550918367347, 0.05290816020408163, 0.04401020204081633, 0.03956122346938775, 0.04254081428571428, 0.04254081428571428, 0.03711224489795918, 0.045214283673469385, 0.045122446938775505, 0.054112240816326526, 0.054112240816326526, 0.062428567346938774, 0.04115306020408163, 0.04858163265306122, 0.04947959183673469, 0.03437755102040816, 0.03437755102040816, 0.031173469387755098, 0.052867342857142854, 0.052867342857142854, 0.038622446938775506, 0.026020408163265306, 0.045377551020408156, 0.03169387551020408, 0.03169387551020408, -0.004908163265306122, -0.028683673469387754, 0.014112244897959184, 0.028612242857142853, 0.028612242857142853, 0.02071428469387755, -0.0013163265306122447, 0.0068877551020408165, 0.03499999897959183, 0.03499999897959183, 0.03271428571428571, 0.04078571326530612, 0.031173469387755098, 0.011877551020408163, 0.01287755, 0.01287755, 0.04096938673469387, 0.054673467346938766, 0.04272448775510204, 0.04795918367346938, 0.04795918367346938, 0.04062244795918367, 0.024377549999999998, 0.028244898979591832, 0.024418367346938776, 0.024418367346938776, 0.027102040816326528, 0.026530611224489794, -0.0068877551020408165, -0.016816326530612245, -0.016816326530612245, -0.01891836632653061, -0.033244897959183665, -0.09279591734693877, -0.09440816224489795, -0.09440816224489795, -0.06758163163265306, -0.05826530408163264, -0.0638163275510204, -0.0185, 0.02612244693877551, 0.02612244693877551, 0.06763264795918367, 
1, 0.015853905905485514, 0.002846938775510204, -0.0019591836734693877, -0.0009387755102040815, -0.0009387755102040815, -0.010989795918367346, 0.00373469387755102, -0.042265304081632656, 0.2182653, 0.2182653, 0.1574489775510204, 0.06596938673469388, 0.00910204081632653, 0.012459183673469387, 0.012459183673469387, -0.06946938367346939, -0.06946938367346939, 0.017020407142857144, 0.2881632530612245, 0.2881632530612245, 0.2728673387755102, 0.21540816938775506, 0.2861224387755102, 0.1999387693877551, 0.1999387693877551, 0.21494897040816327, 0.33813264897959183, 0.3546122387755102, 0.15533673469387754, 0.15533673469387754, -0.0017959183673469388, -0.06590816428571428, -0.04582652959183673, 0.02237755102040816, 0.02237755102040816, -0.12110204081632653, -0.20013264285714283, -0.5670000091836734, -0.3030612275510204, -0.2714897908163265, -0.266479593877551, -0.1117959193877551, 0.1597959163265306, 0.022999999999999996, 0.022071428571428568, 0.022071428571428568, 0.06065306020408163, 0.10816325918367346, 0.10924488877551021, -0.04299999795918367, -0.04299999795918367, 0.03520408163265305, 0.037204081632653055, 0.035234692857142855, 0.035234692857142855, 0.04258163163265306, 0.016928570408163264, 0.07295918061224489, 0.07633673265306122, 0.07633673265306122, 0.0923979581632653, 0.020867345918367346, -0.029877548979591835, -0.11163265102040815, -0.11163265102040815, -0.06386734387755101, -0.06386734387755101, -0.02938775408163265, -0.10083672959183673, -0.10083672959183673, -0.11711223979591837, -0.10613265102040814, -0.15671428367346937, -0.13753061428571428, -0.13753061428571428, -0.10786734081632653, -0.20496937653061223, -0.10651020408163266, -0.10146938367346937, -0.10146938367346937, -0.05984693775510203, 0.1090102051020408, 0.21263263673469388, 0.029489795918367343, 0.029489795918367343, -0.02535714183673469, -0.09458162959183673, -0.018581632653061224, -0.016520408163265304, 0.02609183571428571, 0.022693876530612243, 0.07637754999999999, 0.04230612040816326, 0.3499999826530612, 0.3319489714285714, 0.3319489714285714, 0.4112958908163265, 0.39269386530612244, 0.35949998979591835, 0.2918775469387755, 0.2918775469387755, 0.08319387653061223, 0.05982652653061223, 0.051122447959183664, 0.051122447959183664, 0.07627551020408163, 0.08189795612244898, -0.07242857142857143, -0.12766325918367347, -0.12766325918367347, 0.08660203979591835, 0.12183673571428569, 0.11980611428571428, 0.017224489795918365, 0.017224489795918365, -0.05702040612244897, -0.05702040612244897, -0.09160203571428571, 0.000836734693877551, 0.000836734693877551, 0.05933673367346938, 0.10952040816326529, 0.12729591224489795, 0.03511224489795918, 0.03511224489795918, -0.005806122448979592, -0.050591835714285716, -0.4632755204081632, -0.4067754989795918, -0.4067754989795918, -0.21561223673469387, 0.1457244887755102, 0.17971428061224487, 0.18721428469387755, 0.18721428469387755, 0.2104897887755102, 0.11867346836734693, 0.3701428489795918, 0.2628163173469388, 0.363122443877551, 0.31187753265306123, 0.2698265285714285, 0.1036836663265306, 0.12345918571428571, -0.05152040612244898, -0.05152040612244898, -0.014642857142857141, 0.01443877551020408, 0.0599693887755102, 0.07138775306122448, 0.07138775306122448, 
2, 0.04720888366719145, -0.10953061428571428, -0.1835816244897959, -0.12834693673469386, -0.09483673163265305, -0.09483673163265305, -0.07536734285714286, 0.0027959183673469386, -0.011755102040816326, 0.02946938775510204, -0.0247244887755102, -0.07678571428571428, -0.06775509897959184, -0.10032652551020407, -0.14964284897959182, -0.21511223877551017, -0.21511223877551017, -0.09725509897959184, 0.03257142653061224, 0.03790816224489796, -0.03206122244897959, -0.03206122244897959, -0.13787754897959184, -0.11042856428571428, -0.045540816326530606, -0.2441326448979592, -0.2441326448979592, -0.23530612142857144, -0.13749999693877551, -0.13160203163265305, -0.13691836428571427, -0.02238775408163265, 0.11126530408163264, 0.19139795918367344, 0.32139795204081634, 0.323520387755102, 0.17578571428571427, 0.16835713877551017, 0.2030306081632653, 0.17745918163265303, 0.05870407959183673, 0.13683673061224488, 0.238520393877551, 0.06125510306122448, 0.18814285204081632, 0.026836732653061225, 0.04077551020408163, 0.04077551020408163, -0.1527755112244898, -0.20801018673469387, -0.172112243877551, 0.27361222653061223, 0.25122447857142854, 0.18558162857142857, 0.050408162244897955, 0.050408162244897955, 0.03819387755102041, -0.11240815612244896, -0.21983672142857144, -0.24599999795918367, -0.09729591530612244, -0.03545918367346938, -0.03989795918367347, -0.06847958775510204, -0.12236733775510203, -0.15593876632653061, -0.15593876632653061, -0.1667551, -0.19483673367346938, -0.24474489489795917, -0.1877755051020408, -0.1877755051020408, 0.09407142551020407, 0.08722448877551019, 0.07968367346938775, -0.024622447959183672, -0.024622447959183672, -0.06496938469387754, -0.14934693061224488, -0.1856734683673469, -0.20944897040816327, -0.2774489653061224, -0.3411224428571428, -0.3626122275510204, -0.3382244887755102, -0.2772856979591837, -0.15703061428571427, -0.13589795714285713, 0.08447959081632653, 0.0830204081632653, 0.045295917346938774, 0.08244897653061224, 0.09037754999999999, 0.07056122551020408, 0.20540816428571426, 0.025153061224489792, 0.06511224183673468, 0.06511224183673468, 0.11466326734693877, 0.11695917755102041, 0.15981632857142855, 0.06392857244897959, 0.009918367346938774, 0.03187754897959184, 0.1285714275510204, 0.1285714275510204, 0.2954387663265306, 0.4172244846938776, 0.35975509795918365, 0.29668367653061223, 0.2483775418367347, 0.1022142775510204, -0.027204079591836735, -0.09961224285714285, -0.08946938775510203, -0.00446938775510204, -0.00446938775510204, 0.07110203979591836, 0.12005101632653059, 0.07352040714285714, -0.1975408132653061, -0.1975408132653061, -0.2954387663265306, -0.2169795908163265, -0.17016325714285713, -0.25961223877551015, -0.25961223877551015, -0.2244489775510204, -0.013336733673469386, -0.004765306122448979, -0.16806122040816326, -0.06155101632653061, 0.1526734663265306, 0.27498979999999995, 0.24041835102040815, 0.24494896122448975, 0.2668469295918367, 0.17863265102040815, 0.06660204183673468, 0.10591836632653061, 0.16136733877551018, -0.0565306081632653, -0.2820714153061224, -0.16893877040816327, 0.016091836734693877, -0.04664285408163265, 0.12725510204081633, 0.12725510204081633, -0.1733469357142857, -0.32506120408163264, -0.3120510193877551, 
3, 0.02073936776145121, -0.16609183367346939, -0.11484693469387754, 0.2576836765306122, 0.48016324285714285, 0.01813265306122449, -0.06289795918367345, -0.06289795918367345, 0.2468979602040816, 0.2468979602040816, -0.036153060204081634, -0.3518367295918367, -0.17423469183673468, -0.15270408367346938, -0.15270408367346938, -0.13030611734693875, 0.12098978979591835, 0.3022857102040816, 0.3022857102040816, 0.2154387744897959, 0.05592857040816326, 0.0030816326530612244, 0.07264285714285713, 0.07264285714285713, 0.006204081632653061, 0.056724487755102034, 0.09932653061224489, 0.028969386734693875, -0.02403061122448979, -0.06265305714285714, -0.04703061020408163, 0.009224489795918367, 0.07866326020408163, 0.07866326020408163, 0.1362653051020408, 0.00626530612244898, 0.13588775204081632, -0.11089795714285715, -0.03602040714285714, 0.04934693775510204, 0.06745918061224489, 0.06061224285714285, -0.01443877551020408, 0.09875509795918366, 0.09875509795918366, 0.08545918163265306, 0.05629591836734693, -0.0053775510204081625, -0.08918366836734692, -0.07838775306122449, 0.09326530306122448, 0.09095918163265306, -0.09774489693877551, -0.02915306020408163, 0.04622448775510204, -0.03370408163265306, -0.19388775408163264, -0.19388775408163264, -0.012775510204081632, -0.012775510204081632, -0.10395918571428571, 0.06061224285714285, 0.0161734693877551, 0.005806122448979592, 0.005806122448979592, -0.01046938775510204, -0.0517448969387755, -0.05284693775510203, -0.05284693775510203, -0.03551020306122449, 0.021295918367346938, 0.032193876530612245, 0.011234692857142856, 0.011234692857142856, -0.03081632551020408, 0.05258163061224489, 0.07374489795918367, 0.058122447959183664, -0.01637755, -0.0565204081632653, -0.048418367346938766, -0.05128571530612244, -0.08108162755102041, -0.08108162755102041, -0.06928571020408163, 0.020959182653061223, 0.028040816326530608, 0.07882652857142856, 0.10419387040816326, 0.01686734693877551, -0.012255102040816325, -0.04740816326530612, -0.11926530612244898, -0.020071427551020406, -0.020071427551020406, -0.08453060816326531, -0.13272448469387754, -0.009561224489795917, 0.0834285663265306, 0.04474489693877551, 0.018112243877551018, -0.2551326459183674, 0.05941836836734693, 0.23055100918367347, -0.25693876428571427, -0.1928877469387755, 0.1889285632653061, 0.1889285632653061, -0.015979591836734693, -0.015979591836734693, -0.008326530612244898, -0.08748979591836735, 0.0888265275510204, -0.06736734693877551, -0.06736734693877551, -0.08316326530612243, 0.18366325918367346, 0.20393877653061224, 0.20393877653061224, 0.08193877244897958, 0.013846938775510203, -0.0210510193877551, -0.07598979081632652, -0.07598979081632652, -0.03187754897959184, -0.02248979489795918, -0.11628570612244897, -0.19822447857142858, -0.061275509183673464, 0.06784693877551021, -0.06722449081632652, -0.00933673469387755, 0.08889795612244898, 0.08889795612244898, 0.0654285724489796, -0.16166325714285715, 0.08947958775510204, -0.22121427040816324, -0.33774487857142854, -0.12692856530612243, 0.045295917346938774, 0.0988877551020408, 0.029724489795918366, -0.08034693979591837, -0.08034693979591837, 0.06596938673469388, 0.13343876734693877, 0.045469387755102036, -0.0257551, -0.06063264897959183, -0.007091836734693878, 
4, 0.02421714830524246, 0.09326530306122448, -0.09007142551020407, -0.1407040744897959, 0.12360204285714284, 0.01743877551020408, 0.01743877551020408, -0.07743877448979591, -0.02937755102040816, -0.0072755102040816325, -0.033612244897959186, -0.033612244897959186, 0.027204079591836735, -0.1808673387755102, -0.19695918163265305, 0.09649999897959183, 0.09649999897959183, 0.10621428469387754, -0.0954999969387755, -0.0954999969387755, 0.11241836224489794, 0.16704081224489795, 0.09712244795918366, 0.12748979795918366, 0.04524489795918367, 0.11884692959183672, -0.017999998979591834, 0.017193876530612242, -0.09172448673469387, -0.09172448673469387, -0.03823469183673469, -0.1653061224489796, -0.18839796020408162, -0.03303061020408163, 0.07183673469387754, 0.09306122448979591, -0.03345918265306122, -0.03345918265306122, 0.10763264387755102, -0.30012245102040813, -0.06456122142857143, 0.07131632448979591, 0.014959182653061225, -0.04968367346938775, -0.06787755102040816, 0.055510201020408156, -0.02937755102040816, -0.013795917346938774, -0.013795917346938774, 0.15838775102040817, 0.08221428571428571, 0.018112243877551018, 0.05894897551020408, 0.1354591826530612, -0.06883673571428571, 0.06904081428571428, 0.06904081428571428, 0.07454081428571428, 0.02014285612244898, 0.05086734591836734, -0.08434693469387755, -0.08434693469387755, -0.07423468979591835, -0.0029897959183673465, -0.03158163061224489, 0.014316325510204082, 0.014316325510204082, 0.004540816326530612, 0.014193877551020407, 0.014193877551020407, 0.12165305612244898, 0.004775510204081633, -0.067744893877551, 0.012397959183673469, 0.02316326530612245, 0.020020408163265307, -0.0487244887755102, -0.04178571428571428, -0.01604081530612245, -0.01604081530612245, -0.02893877551020408, 0.2189693887755102, 0.028653059183673467, -0.046693877551020405, -0.042173467346938776, -0.10722448673469386, 0.046704079591836735, 0.046704079591836735, -0.08843877448979591, 0.25268367346938775, -0.014612244897959183, 0.1252244806122449, 0.07961224489795918, -0.060377546938775506, 0.17689794897959182, 0.002326530612244898, -0.00966326530612245, -0.023091836734693876, -0.023091836734693876, -0.15474489795918367, -0.04787755, -0.007091836734693878, 0.03591836734693877, 0.07401019897959184, -0.019826530612244896, -0.010224489795918366, -0.010224489795918366, -0.048122448979591836, 0.029734692857142853, 0.1543163275510204, 0.0553265275510204, 0.0553265275510204, 0.028163264285714282, -0.08762244693877551, 0.06239795612244897, -0.14305101326530612, -0.14305101326530612, -0.09575509897959182, -0.08955101530612244, -0.08955101530612244, -0.15792856428571428, -0.06506122448979591, 0.11020407346938774, 0.06497959081632652, -0.023408162244897956, -0.014897959183673468, 0.012193877551020407, 0.03369387653061224, -0.10571428673469387, -0.10571428673469387, -0.016714285714285713, 0.07474489387755101, -0.11774490102040815, 0.021397958163265306, 0.03839795714285714, 0.06725510204081632, -0.012346938775510203, -0.012346938775510203, -0.08948979285714284, 0.14534693571428572, 0.009816326530612244, -0.008693877551020407, 0.08820407857142856, -0.03645918163265306, 0.09686734591836733, -0.005653061224489796, 0.021387755102040815, -0.017418367346938773, -0.017418367346938773, -0.02885714183673469, -0.01653061224489796, 
5, 0.023756644634233652, 0.18642856122448978, 0.18642856122448978, 0.041979590816326524, 0.10288775, 0.03148979387755102, -0.10764284999999998, -0.10764284999999998, -0.07012244999999999, 0.03562244795918367, 0.0402040806122449, 0.039520406122448976, 0.0880714275510204, 0.07344897959183673, 0.050469387755102034, -0.015673468367346937, -0.06677550918367346, -0.06677550918367346, -0.009795918367346938, -0.05312244489795918, 0.025622448979591834, 0.11965305204081632, 0.03794897857142857, -0.06758163163265306, -0.04168367244897959, -0.020520407142857144, 0.028989795918367346, 0.02864285714285714, -0.040499999999999994, -0.03719387653061224, 0.01327551020408163, 0.03181632653061225, 0.008285714285714285, 0.008285714285714285, 0.07527550918367346, 0.0506020387755102, -0.010091836734693877, -0.01721428469387755, -0.10169387448979592, 0.06602040408163265, 0.01809183571428571, 0.004918367346938775, -0.0017755102040816323, -0.028795916326530613, 0.0799285693877551, 0.010010204081632654, -0.042816324489795915, -0.035663265306122446, -0.04930612040816326, 0.047367345918367346, -0.004704081632653061, -0.048122448979591836, -0.048122448979591836, 0.05293877142857142, -0.07277550714285715, 0.06018367346938775, -0.01903061224489796, -0.01903061224489796, -0.023142856122448978, -0.1211428520408163, -0.05126530408163264, 0.021540816326530612, 0.10296938367346938, 0.15995918469387754, -0.11057142142857143, -0.05259183571428571, -0.010683673469387754, -0.010683673469387754, -0.058806119387755096, -0.05176530204081632, 0.005959183673469388, 0.03642857040816326, 0.07392857142857143, 0.12712245102040814, 0.0193265306122449, 0.043489795918367345, 0.0702346887755102, 0.00971428469387755, -0.09087754795918367, 0.13549999285714284, 0.018999998979591835, 0.018275509183673468, 0.16223469591836734, 0.16223469591836734, -0.045469387755102036, -0.07698979285714286, -0.006959183673469387, -0.038448979591836734, 0.016683673469387754, 0.11792856836734691, -0.21812244387755098, -0.24479591122448977, -0.145755093877551, -0.039693877551020405, -0.007969387755102041, -0.07042856836734693, -0.05157142857142857, -0.07904081326530613, -0.16660203775510202, -0.061693878571428565, 0.1404285673469388, -0.10190815918367346, -0.10190815918367346, 0.1936020408163265, 0.058091836734693876, 0.016418367346938773, 0.10966326530612244, 0.10966326530612244, 0.09572448775510203, 0.03567346836734694, 0.0069387755102040816, 0.0019693877551020408, -0.03839795714285714, -0.08933673061224488, 0.38832652346938773, 0.023999998979591836, -0.06380612142857142, -0.06380612142857142, -0.09698979081632653, -0.0787551, 0.030836733673469383, 0.12655101224489795, -0.010438775510204081, -0.011673469387755101, -0.04078571326530612, -0.012081632653061223, 0.0774693857142857, 0.05479591836734694, -0.04104081428571429, 0.04128571326530612, 0.0196734693877551, -0.019367345918367345, -0.13056122551020408, -0.13056122551020408, -0.05128571530612244, 0.02702040612244898, 0.0016326530612244896, -0.0362244887755102, 0.0016122448979591837, 0.01320408163265306, 0.03334693775510204, 0.0502551, 0.056030610204081635, -0.04398979387755102, -0.03707142857142857, -0.05813265306122448, 0.005489795918367347, 0.013602039795918367, 0.05318367346938775, -0.03411224285714286, -0.05239795714285714, 
6, 0.04348883069236366, 0.07960203979591836, -7.142857142857142e-05, -0.17562244591836734, 0.02761224387755102, -0.08699999795918367, 0.005979591836734693, 0.09111224387755101, 0.13530612040816326, 0.13530612040816326, -0.09049999489795918, 0.001989795918367347, -0.01821428571428571, -0.02047959183673469, -0.008571428571428572, -0.005540816326530612, -0.008346938775510203, -0.008826530612244896, -0.04737754897959184, -0.04737754897959184, 0.0377755081632653, 0.04225510102040816, 0.016326530612244896, -0.06292857040816326, 0.022030611224489797, -0.006642857142857143, -0.011418366326530613, -0.037612242857142854, 0.7130203928571428, -0.346, 0.06241836734693877, 0.19533673061224488, -0.38129589999999997, -0.09678571224489796, 0.33435714489795915, 0.3797448897959183, -0.23359181938775506, -0.4974081561224489, -0.5944285591836734, -0.6016734663265306, -0.12233673265306122, -0.17811224183673469, 0.07115305714285715, 0.1925510163265306, -0.018112243877551018, -0.07946938265306122, -0.03534693775510204, -0.03534693775510204, 0.1125918357142857, -0.011040816326530612, 0.07883673469387754, 0.13414285612244897, -0.013499998979591836, 0.020591835714285713, -0.0130510193877551, -0.031938774489795915, -0.09072448571428571, 0.12765305408163266, -0.035826530612244896, -0.035826530612244896, -0.08971428367346938, -0.04933673163265306, 0.08104081632653061, 0.012387755102040815, -0.02846938571428571, -0.01807142857142857, -0.034418367346938775, -0.023357142857142854, -0.00223469387755102, -0.00223469387755102, -0.07290816428571428, 0.014714285714285713, 0.006306122448979591, 0.05463264999999999, 0.010112244897959182, -0.011795918367346937, 0.003346938775510204, -0.02163265306122449, -0.2070612081632653, 0.06745918061224489, 0.022224488775510202, -0.12313265, 0.0011020408163265306, -0.09461224081632653, -0.19936734285714283, 0.08034693979591837, 0.27574488061224484, 0.04954081428571428, 0.042163264285714284, 0.11603061020408162, 0.03680612040816326, 0.024989794897959182, -0.08462244795918367, -0.09378571326530612, 0.04253061122448979, -0.05143877244897958, -0.07085713775510204, -0.07085713775510204, -0.12589795204081633, -0.01664285612244898, -0.028479591836734694, -0.14263264999999997, 0.18134693673469388, 0.11634694081632652, -0.01774489693877551, -0.055173465306122445, -0.09558163163265306, 0.08639795408163264, 0.07807142857142857, 0.07807142857142857, 0.05127551020408162, 0.010744896938775509, -0.06558162857142856, -0.052724486734693876, -0.00820408163265306, -0.0038163265306122448, 0.06902040918367347, -0.009051020408163265, -0.041897957142857135, -0.041897957142857135, 0.00019387755102040816, 0.007224489795918367, -0.03412244897959183, 0.0004897959183673469, -0.006561224489795917, 0.006122448979591836, 0.0032857142857142855, -0.006285714285714285, -0.14121427857142854, 0.23376530510204083, -0.19543876428571427, 0.25326529285714283, 0.020969386734693875, -0.456316325510204, -0.01731632653061224, -0.2465918357142857, -0.28712243469387755, -0.5025408214285714, 0.20635714285714285, 2.6246121469387753, 0.5998265010204081, -0.35101019591836735, -0.5707448846938775, -0.49423465918367343, 0.0807653030612245, -0.1285510163265306, 0.3099285581632653, 0.3099285581632653, -0.10535714591836734, 0.02530612244897959, -0.06425510306122448, 
7, 0.020647295819078662, 0.07883673469387754, 0.006448979591836735, 0.02054081632653061, -0.006744897959183673, -0.01721428469387755, 0.01443877551020408, 0.0047857142857142855, -0.012928571428571428, -0.06624489387755102, -0.05875510204081632, -0.008091836734693877, -0.03693877448979591, -0.01547959081632653, -0.0312551, -0.011122448979591837, -0.0016632653061224487, 0.020632653061224488, 0.007897959183673468, 0.016214284693877548, 0.020734693877551016, 0.016153061224489795, -0.004540816326530612, -0.004540816326530612, -0.03222448775510204, -0.0314693887755102, -0.07879591734693876, 0.022734693877551018, -0.03257142653061224, 0.009418367346938775, -0.02294897857142857, 0.011520408163265305, -0.04479591632653061, 0.05159183469387754, 0.0016020408163265303, 0.016326530612244896, 0.02852040918367347, -0.02703061224489796, 0.007051020408163264, 0.007051020408163264, 0.0766836744897959, -0.024938774489795916, -0.02080612142857143, 9.183673469387755e-05, -0.0019999999999999996, -0.03025510204081632, 0.023663264285714285, 0.016663264285714286, -0.019061223469387753, -0.03930612142857143, -0.027755099999999994, -0.028479591836734694, -0.02819387551020408, -0.02440816326530612, -0.02394897857142857, -0.06883673571428571, -0.017285713265306122, -0.0067653061224489785, -0.024622447959183672, -0.045122446938775505, -0.10088775204081632, 0.0027959183673469386, 0.04164285510204081, -0.015316325510204079, -0.08065305816326529, -0.06345917959183674, -0.12796938469387753, 0.0331020387755102, 0.11937754489795918, -0.06337755204081633, -0.13105101734693878, -0.004897959183673469, -0.07674489693877551, -0.07674489693877551, -0.04187755102040816, -0.06254081224489795, 0.14759182959183673, 0.024683673469387754, -0.02938775408163265, 0.061295914285714286, -0.014193877551020407, 0.040183672448979586, 0.057479592857142846, 0.04624489591836734, -0.18640816224489795, -0.0860816306122449, -0.04629591632653061, -0.004704081632653061, 0.02391836632653061, 0.02391836632653061, -0.0837755081632653, -0.00573469387755102, 0.07664285714285714, 0.04453061224489796, -0.005663265306122448, -0.10405101326530612, -0.1476836693877551, -0.17648979081632654, -0.19196938469387753, -0.1294285663265306, -0.137867343877551, -0.06425510306122448, 0.21071429183673468, 0.21166327040816327, 0.14313264795918365, -0.021795917346938774, -0.2960306040816326, -0.004061224489795919, 0.09032652653061224, -0.18426530204081631, -0.35797958469387753, -0.18950000102040815, 0.259489793877551, 0.2958061255102041, 0.4382244908163265, 0.1749489744897959, -0.15359182755102038, -0.15178570918367346, 0.1469591806122449, 0.10602039999999999, 0.07820407959183673, -0.045204080612244894, 0.002061224489795918, 0.002061224489795918, 0.06959183469387754, -0.03157142755102041, -0.15607142959183673, 0.08237754795918366, 0.022836733673469386, 0.05891836428571428, -0.018397959183673467, 0.045295917346938774, 0.042418366326530614, -0.07739795714285713, -0.012632652040816325, 0.05923469489795918, 0.026326529591836734, -0.06795918469387754, 0.01283673469387755, 0.01283673469387755, -0.00883673469387755, 0.03095918163265306, 0.04303061224489796, 0.033010202040816325, -0.06571428469387754, 0.0009081632653061224, 0.05362244897959183, -0.021510203061224486, 0.048244896938775504, 0.09481632551020407, 0.015765305102040817, 
8, 0.021609416444049016, 0.04887755102040816, -0.008142856122448978, -0.008142856122448978, -0.06898979183673469, -0.01368367244897959, -0.02465306020408163, 0.02780612040816326, -0.01947959183673469, -0.05402040714285714, -0.08038775, -0.08038775, -0.0064795918367346935, -0.06839796020408162, -0.08918366836734692, 0.09174489897959183, 0.2498877530612245, 0.037795916326530614, 0.038948977551020406, 0.038948977551020406, 0.00793877551020408, 0.01023469387755102, 0.001704081632653061, 0.004724489795918367, 0.004724489795918367, 0.03724489591836735, 0.025918368367346938, 0.033499999999999995, -0.04780612142857142, -0.04780612142857142, -0.05158162857142856, -0.04473469387755102, 0.08356122346938775, -0.12207141938775509, -0.1578571357142857, -0.04618367346938775, 0.004653061224489796, 0.1099183612244898, -0.0751836693877551, 0.03786734489795918, 0.06885714081632652, 0.023744896938775507, -0.0464285693877551, -0.040928569387755104, -0.04539795714285714, -0.04344897959183673, -0.054285715306122445, -0.08946938775510203, -0.11533672755102041, -0.060397958163265306, 0.1921530520408163, -0.0064795918367346935, -0.08370407959183673, -0.08370407959183673, -0.030673468367346936, 0.07298979183673468, 0.041826528571428566, -0.11253061326530611, -0.23652040204081634, -0.05645917959183674, 0.07293877551020407, 0.07293877551020407, -0.036724489795918365, 0.032765306122448976, 0.09981632244897959, 0.1359795918367347, 0.06971428571428571, 0.01547959081632653, 0.017244897959183672, 0.017244897959183672, 0.02370408163265306, 0.006255102040816326, -0.042173467346938776, -0.06133673163265306, -0.06133673163265306, -0.06530612142857142, -0.0996938775510204, 0.028663265306122444, 0.10405101326530612, 0.10405101326530612, -0.09959183163265305, 0.08277550612244898, -0.2641326551020408, -0.029163263265306123, 0.0967346887755102, -0.10732653163265306, -0.018897958163265307, 0.12795917857142858, -0.007846938775510202, 0.11304081734693877, -0.1960510132653061, 0.00510204081632653, 0.045469387755102036, 0.21752041224489796, -0.14272448979591837, -0.030306121428571427, 0.012377551020408164, 0.1333163224489796, 0.11933673367346938, 0.019969386734693874, -0.1504183663265306, -0.015653060204081633, -0.056673470408163264, -0.056673470408163264, 0.010581632653061224, 0.02819387551020408, -0.05343877551020408, 0.09287755102040816, 0.032530612244897956, -0.028908161224489793, 0.007816326530612245, 0.007816326530612245, 0.03641836530612245, 0.12460203775510204, -0.14875509285714286, -0.07288775306122448, -0.04963265102040816, -0.015469387755102041, -0.056183672448979594, -0.056183672448979594, -0.015183673469387753, -0.03943877551020408, -0.033336734693877546, 0.0220510193877551, 0.0220510193877551, 0.02871428571428571, 0.036663264285714287, 0.002704081632653061, 0.07703061020408163, 0.07703061020408163, -0.26946938775510204, 0.16990816122448976, -0.19782652653061225, 0.08092857142857142, 0.18416325612244897, -0.08006122040816326, 0.07336734489795918, -0.09864285306122449, -0.12834693673469386, -0.08106122244897959, -0.059061220408163265, 0.0052448979591836736, -0.03476530612244898, 0.12127550306122449, -0.12490816224489795, -0.03533673571428571, -0.10608163367346939, -0.16298978877551018, -0.16963265408163264, -0.0565306081632653, -0.11208163265306122, 
9, 0.021842042196027964, 0.1113979551020408, 0.08789795408163265, -0.004642857142857142, 0.004418367346938775, -0.044897959183673466, -0.05383673367346939, -0.04268367346938775, -0.01701020306122449, 0.01851020408163265, -0.007540816326530611, 0.07773469285714285, 0.030397958163265303, 0.015673468367346937, 0.010591836734693877, -0.01504081530612245, -0.026224489795918366, 0.003581632653061224, 0.09925510204081632, 0.00423469387755102, 0.032275510204081634, 0.026132653061224486, 0.044377549999999995, -0.006387755102040816, 0.005591836734693877, 0.005387755102040816, -0.026010205102040815, -0.026010205102040815, 0.030183673469387752, 0.007622448979591836, -0.031244897959183674, -0.005520408163265306, -0.009704081632653062, -0.06329591734693878, -0.04591836632653061, 0.002193877551020408, -0.006183673469387755, -0.013530611224489794, 0.003173469387755102, 0.05012244897959184, 0.06744897448979591, 0.06025510204081633, 0.016785714285714286, -0.02316326530612245, -0.05316326224489795, 0.016448979591836735, 0.10786734081632653, -0.07952040510204081, 0.007387755102040816, -0.009306121428571427, -0.03129591734693877, -0.13651019489795918, -0.1559591775510204, -0.0005306122448979591, 0.014357142857142855, 0.1742244857142857, 0.0942857112244898, 0.0012959183673469385, -0.022959182653061225, -0.07924489795918366, 0.012357141836734694, -0.06437754795918367, -0.1480306051020408, -0.1749489744897959, -0.20051019489795915, 0.05678571020408163, 0.06731632448979591, 0.05767346632653061, -0.04468367142857143, -0.06193877448979592, 0.04570408163265306, -0.04094897755102041, 0.045030609183673465, 0.00830612244897959, 0.015122447959183672, 0.015591835714285712, 0.15574489285714285, 0.15574489285714285, 0.2639999928571429, 0.23978571530612242, 0.029295917346938777, -0.3218469326530612, -0.011775509183673469, -0.07904081326530613, -0.08083673163265305, -0.004551020408163265, -0.01183673469387755, -0.00021428571428571425, 0.0014693877551020407, 0.023408162244897956, 0.012387755102040815, -0.014724489795918368, -0.027275508163265304, -0.01073469387755102, -0.02328571326530612, 0.01623469387755102, -0.03957142653061224, 0.07993877551020408, 0.0033163265306122448, 0.023734692857142855, -0.01504081530612245, -0.0841938775510204, -0.08387754795918367, -0.1457244887755102, -0.08724489387755101, -0.01888775408163265, -0.08210204081632652, -0.05980612040816326, -0.04773469285714285, -0.0292244887755102, -0.09748979489795917, -0.04509183571428571, -0.01584693775510204, -0.0269285693877551, 0.07316326632653061, -0.03788775306122449, -0.014979591836734694, -0.07337755102040816, -0.03481632551020408, -0.06136734285714285, -0.015520408163265307, -0.007959183673469388, -0.05744897551020407, -0.005459183673469387, -0.019510203061224488, 0.0069183673469387745, -0.015306121428571427, -0.015306121428571427, -0.06476530612244898, -0.03941836734693877, -0.05370408265306122, -0.0016224489795918368, -0.012908163265306121, 0.011397959183673468, 0.000336734693877551, -0.019438774489795918, -0.02085714183673469, -0.011122448979591837, -0.021387755102040815, -0.02939795918367347, 0.014020408163265304, -0.01573469387755102, -0.02537755, -0.022867345918367345, -0.031346936734693874, 0.057908163265306116, -0.15682652244897957, 0.005744897959183673, -0.013663265306122448, 0.025938773469387753, -0.06327550612244898, 
10, 0.026619380080352906, 0.03255102142857143, -0.007265306122448979, 0.00696938775510204, -0.006979591836734694, 0.003255102040816326, 0.015367346938775511, -0.012193877551020407, 0.0023163265306122447, 0.01978571326530612, 0.01587755102040816, -0.04106122346938775, 0.03593877551020408, 0.0031632653061224487, -0.02270408163265306, -0.03241836734693877, 0.06363265408163264, -0.011642856122448978, 0.1347755051020408, -0.019377551020408165, -0.0065306122448979586, -0.00260204081632653, 0.01616326530612245, -0.000846938775510204, -0.006622448979591836, 0.005744897959183673, -0.023989795918367345, -0.08168367142857143, -0.005408163265306122, -0.005408163265306122, 0.01190816224489796, -0.0027346938775510204, -0.0161734693877551, 0.043489795918367345, 0.043489795918367345, 0.03485714285714286, -0.003428571428571428, -0.02460204081632653, -0.03397959183673469, -0.03397959183673469, -0.0467244887755102, -0.012969386734693876, -0.002530612244897959, -0.0358673469387755, -0.00286734693877551, 0.012520408163265306, -0.009020408163265306, 0.0014081632653061224, -0.15638774795918364, -0.15638774795918364, 0.05026530510204081, 0.038295917346938775, -0.005612244897959183, -0.004489795918367346, -0.02036734693877551, 0.0007755102040816326, 0.006928571428571428, 0.04105102040816326, 0.0046326530612244895, -0.014061223469387756, -0.029979591836734692, 0.01233673469387755, 0.005255102040816326, 0.010142857142857143, 0.014316325510204082, 0.01670408163265306, -0.02131632551020408, -0.007602039795918367, -0.026448980612244894, 0.034979590816326525, 0.011785714285714285, 0.025428570408163265, 0.0020918367346938775, 0.010816326530612244, -0.004163265306122449, -0.0069387755102040816, -0.00186734693877551, 0.05043877346938776, 0.04494897857142857, 0.04494897857142857, 0.003061224489795918, -0.019520407142857143, -0.0050918367346938775, -0.007418367346938775, -0.007418367346938775, -0.025193876530612246, -0.0455204081632653, 0.024428571428571428, 0.00473469387755102, 0.00473469387755102, 0.07042856836734693, 0.0016020408163265303, 0.01514285612244898, 0.016999998979591837, -0.015081632653061222, -0.026663265306122445, 0.01361224387755102, -0.0526836693877551, 0.32965304897959186, 0.32965304897959186, -0.08958163265306122, -0.008653061224489795, -0.03280612244897959, 0.014561224489795917, -0.00596938775510204, 0.028316326530612244, 0.00014285714285714284, 0.001377551020408163, -0.009132653061224488, -0.01554081632653061, -0.004887755102040816, 0.030193876530612243, -0.0247244887755102, -0.01628571326530612, 0.0021122448979591837, -0.009908163265306122, -0.04103061224489796, 0.007387755102040816, -0.05746938775510204, 0.035173467346938776, 0.0015408163265306122, -0.0186734693877551, -0.005642857142857143, 0.011959182653061224, -0.0223469387755102, -0.017836733673469385, -0.004612244897959183, 0.05280612040816326, -0.03264285816326531, -0.03264285816326531, -0.031612244897959184, 0.004765306122448979, 0.052693875510204075, -0.01087755, -0.01087755, -0.022867345918367345, -0.01801020306122449, -0.017326530612244897, -0.02789795714285714, -0.02789795714285714, -0.014132652040816325, -0.01890816224489796, -0.015214284693877549, -0.007499999999999999, -0.012265305102040816, -0.00983673469387755, -0.009683673469387755, -0.005285714285714285, -0.06676530306122448, -0.06676530306122448, 0.017173469387755103, 
11, 0.018126764191102773, 0.0865102, 0.0522244887755102, -0.05930612244897959, -0.025265305102040815, -0.04819387653061224, -0.017826529591836733, 0.004755102040816327, 0.023193876530612244, 0.005255102040816326, 0.04968367346938775, 0.0436734693877551, -0.056346934693877554, -0.12404081734693877, 0.05208163265306122, 0.05208163265306122, -0.007193877551020407, -0.007193877551020407, 0.017887755102040815, 0.004530612244897959, 0.06842857142857142, 0.04323469183673469, -0.0022857142857142855, -0.049510203061224486, -0.05312244489795918, 0.019091835714285712, -0.04156122448979591, -0.040744895918367344, -0.038602038775510196, -0.01643877551020408, -0.010969386734693876, -0.022632653061224486, -0.0027653061224489793, -0.0005408163265306122, 0.008030612244897959, -0.03091836734693877, 0.019489795918367345, 0.03105101836734694, -0.001204081632653061, -0.022255102040816325, 0.026387755102040816, 0.026387755102040816, -0.009244897959183674, -0.028153062244897956, -0.02280612244897959, -0.008632653061224488, 0.025948979591836736, 0.014755101020408163, -0.016887755102040818, -0.03764285714285714, -0.016908162244897957, -0.06484693367346939, 0.07391836530612245, 0.005948979591836734, -0.011040816326530612, 0.011418366326530613, 0.01587755102040816, -0.01243877551020408, -0.1090102051020408, -0.08006122040816326, 0.14837755204081632, -0.07917347040816326, 0.0666224469387755, 0.09296938469387754, -0.045530610204081626, -0.045530610204081626, 0.003683673469387755, 0.003683673469387755, -0.03653061020408163, 0.03933673265306122, -0.012275509183673467, -0.017887755102040815, -0.056612241836734696, -0.02236734693877551, 0.07558163367346937, 0.05743877653061224, 0.056244894897959176, -0.02672449081632653, -0.010540816326530611, 0.0006326530612244897, 0.014897959183673468, 0.00436734693877551, 0.003173469387755102, 0.0031632653061224487, -0.03340816326530612, 0.013775509183673467, -0.004020408163265305, -0.012295918367346937, 0.008663265306122448, -0.003387755102040816, -0.005275510204081632, -0.005275510204081632, 0.010867346938775509, -0.0016326530612244896, -0.002173469387755102, -0.027642855102040814, -0.008214285714285714, 0.007183673469387755, -0.007673469387755102, -0.02461224489795918, 0.03703061122448979, -0.037459183673469384, 0.030999998979591836, -0.025428570408163265, -0.01821428571428571, 0.021612243877551018, -0.012755102040816325, -0.025938773469387753, -0.056663265306122444, -0.034255103061224486, -0.01740816326530612, 0.05363265510204081, -0.027816326530612244, 0.035663265306122446, 0.028959184693877548, 0.028959184693877548, -0.010520407142857142, -0.010520407142857142, 0.02216326530612245, -0.00031632653061224486, 0.02560204081632653, 0.005663265306122448, 0.01570408163265306, -0.03168367346938775, -0.00810204081632653, -0.026295918367346936, 0.044061222448979594, 0.011877551020408163, -0.029112243877551017, -0.0038061224489795917, 0.005306122448979591, 0.019857142857142854, 0.005755102040816326, 0.010295917346938775, 0.004765306122448979, 0.032530612244897956, 0.016244897959183675, 0.002857142857142857, -0.013214285714285713, -0.0011428571428571427, -0.027051020408163262, -0.027051020408163262, 0.0031530612244897956, -0.00523469387755102, 0.001183673469387755, -0.040418365306122445, -0.019959182653061222, 0.0017448979591836735, 0.01351020306122449, -0.008459183673469386, 0.08296938571428572, 
12, 0.014516380886809236, 0.013959182653061224, 0.013959182653061224, 0.0055, 0.02384693775510204, 0.005112244897959183, -0.03698979387755102, 0.007255102040816325, 0.007255102040816325, 0.013295918367346938, -0.012775510204081632, -0.0018163265306122447, 0.030857141836734693, 0.014255102040816325, -0.020418366326530612, -0.021908163265306122, 0.01089795918367347, 0.005316326530612245, 0.005316326530612245, 0.013887754081632652, -0.024959183673469387, -0.023714285714285712, 0.009173468367346938, 0.009173468367346938, -0.03140816224489796, 0.0029387755102040815, -0.024367345918367343, -0.039010203061224484, 0.02275510102040816, 0.029091834693877546, 0.008459183673469386, 0.008857141836734693, -0.018479591836734692, -0.005948979591836734, -0.015377551020408163, -0.008346938775510203, -0.011326529591836734, -0.018561223469387756, 0.030367346938775505, -0.021663264285714284, -0.0063775510204081625, -0.002561224489795918, -0.015367346938775511, -0.02841836632653061, -0.02856122244897959, -0.006336734693877551, 0.012602040816326529, 0.007673469387755102, 0.007030612244897959, 0.011193876530612244, -0.012428571428571428, 0.0565204081632653, 0.0565204081632653, -0.017734692857142853, -0.011642856122448978, -0.013255101020408161, 0.03963265204081632, -0.011448979591836734, -0.011448979591836734, 0.01287755, 0.004408163265306122, 0.00896938775510204, 0.00610204081632653, 0.0024795918367346934, -0.013459183673469386, 0.026867346938775506, -0.020459183673469387, -0.005438775510204081, -0.005438775510204081, 0.004959183673469387, 0.00017346938775510202, 0.044163264285714286, -0.010030612244897959, -0.010030612244897959, 0.0141734693877551, 0.01220408163265306, -0.02724489693877551, -0.012285714285714283, 0.03237755, -0.02569387755102041, -0.0069387755102040816, 0.011867345918367347, -0.005581632653061224, 0.022795918367346936, 0.008612244897959183, 0.006642857142857143, -0.026346937755102037, -0.03387755, -3.061224489795918e-05, -0.017683673469387755, 0.012693877551020407, 0.0064591836734693864, -0.01925510102040816, -0.024459182653061223, -0.021653061224489796, 0.00523469387755102, 0.020326529591836732, -0.00846938775510204, 0.015153061224489794, 0.010489795918367347, 0.01661224489795918, 0.05789795714285714, 0.05789795714285714, 0.01844897857142857, 0.0035204081632653063, 0.011785714285714285, -0.00893877551020408, 0.01087755, 0.01087755, -0.0009183673469387754, 0.020642857142857143, 0.01057142857142857, -0.016448979591836735, 0.0012857142857142856, 0.022724489795918366, 0.004795918367346938, 0.006387755102040816, 0.003795918367346938, 0.003795918367346938, 0.0010612244897959182, 0.005520408163265306, 0.014816326530612243, 0.009408163265306121, 0.009408163265306121, 0.0066326530612244895, -0.014142856122448979, 0.029142858163265305, 0.014214285714285714, -0.0038877551020408165, -0.06328571224489796, 0.031938774489795915, 0.045551019387755104, 0.017581632653061223, 0.023408162244897956, 0.02384693775510204, -0.005357142857142856, 0.018204080612244898, -0.009295918367346938, -0.0044795918367346935, -0.014397958163265306, 0.002326530612244898, 0.009326530612244897, 0.0034795918367346934, 0.004091836734693877, 0.0065306122448979586, -0.008142856122448978, -0.00933673469387755, -0.009642857142857142, 0.0024489795918367346, 0.000846938775510204, -0.003255102040816326, 
13, 0.011022941628515422, -0.01631632551020408, -0.0682040806122449, -0.07389796020408163, -0.06921428163265306, -0.022397958163265307, -0.01924489693877551, -0.036132652040816324, 0.02744897857142857, 0.014857141836734694, 0.07372448673469387, -0.05343877551020408, -0.00933673469387755, -0.00186734693877551, 0.004989795918367347, 0.013438774489795916, -0.008010204081632652, -0.0009795918367346938, -0.05703061224489795, -0.048091834693877546, 0.049836732653061225, -0.03692857142857143, -0.010816326530612244, -0.010816326530612244, 0.03188775510204082, -0.014826530612244898, -0.060112244897959174, -0.036908163265306125, -0.010153061224489796, -0.3224489642857143, 0.1987142826530612, -0.07203060714285714, -0.003040816326530612, 0.028357140816326527, -0.00423469387755102, -0.014408162244897958, 0.028479591836734694, -0.06407142857142857, -0.044234692857142856, -0.019173468367346937, 0.017204080612244897, 0.09520407857142857, 0.011602039795918367, 0.031602038775510204, -0.05626530714285714, 0.04691836530612244, 0.02233673469387755, 0.02233673469387755, -0.01585714183673469, -0.0038061224489795917, -0.0029693877551020408, 0.006795917346938775, 0.01504081530612245, -0.025071427551020407, 0.05990816020408163, -0.0032448979591836735, 0.02496938775510204, 0.013163264285714286, 0.013499998979591836, 0.015653060204081633, -0.07166326020408163, 0.0176734693877551, -0.0014387755102040815, 0.03167346734693877, 0.01643877551020408, 0.0016020408163265303, -0.01604081530612245, -0.028632651020408163, 0.040336734693877545, 0.07567346734693878, -0.03767346836734693, 0.0424285693877551, -0.04728571224489796, -0.04728571224489796, 0.02163265306122449, 0.0743367357142857, -0.1079489744897959, -0.018795917346938775, 0.013969386734693877, 0.08941836530612245, -0.040183672448979586, -0.019285714285714285, 0.011999998979591836, 0.0074795918367346935, 0.022397958163265307, -0.06020407857142857, -0.01631632551020408, 0.04616326530612245, -0.08844897448979591, -0.045693875510204075, 0.17866325612244896, 0.0915204081632653, 0.02003061224489796, 0.04656122346938775, -0.01293877551020408, 0.12906121938775508, -0.0020306122448979593, -0.0020306122448979593, -0.00536734693877551, -0.005285714285714285, -0.008612244897959183, 0.011520408163265305, -0.18424489081632653, 0.0923673469387755, 0.002683673469387755, -0.04544897959183673, -0.00927551020408163, 0.023765305102040814, -0.01013265306122449, 0.006846938775510204, -0.08353061224489795, 0.03341836632653061, -0.02240816224489796, -0.007622448979591836, 0.003928571428571428, -0.002397959183673469, -0.022275510204081632, -0.02939795918367347, 0.008795918367346937, 0.01293877551020408, -0.03764285714285714, -0.012846938775510205, -0.018826529591836734, -0.018826529591836734, -0.0025816326530612244, 0.01443877551020408, -0.018806121428571427, -0.022530612244897958, 0.006908163265306122, -0.02513265306122449, -0.009244897959183674, 0.07387754897959183, -0.014122448979591836, -0.00037755102040816323, 0.010142857142857143, -0.022602039795918367, -0.016520408163265304, 0.022102040816326527, -0.0373469387755102, -0.012846938775510205, 0.021071427551020407, -0.026224489795918366, 0.014714285714285713, 0.01190816224489796, 0.026020408163265306, 0.08878571020408163, -0.016693877551020406, -0.016693877551020406, 0.0011020408163265306, -0.00783673469387755, -0.010285714285714285, 
14, 0.01768960723058417, 0.0006530612244897959, -0.012510204081632652, -0.01403061224489796, 0.0009387755102040815, 0.009642857142857142, 0.03603061224489796, -0.007673469387755102, -0.02390816224489796, 0.14944897653061223, -0.0026428571428571425, 0.028683673469387754, 0.03943877551020408, -0.028887753061224486, -0.024989794897959182, 0.1396224448979592, -0.18205101428571427, -0.0478979581632653, 0.1433979612244898, -0.20273468979591835, -0.00943877551020408, -0.0028367346938775505, 0.12151019897959182, -0.1291734714285714, -0.0008775510204081632, -0.003999999999999999, -0.08596938469387755, 0.05810204183673469, 0.09883673265306123, -0.03484693673469387, 0.006744897959183673, -0.20195918469387752, 0.04837755, -0.04341836530612245, 0.05999999999999999, 0.06921428163265306, 0.02171428571428571, -0.03059183469387755, -0.03059183469387755, -0.011622448979591835, 0.08612244693877551, 0.0047857142857142855, -0.018959183673469385, -0.018959183673469385, -0.08299999693877551, -0.04023469183673469, 0.010428570408163265, 0.030173467346938772, 0.03395918367346938, -0.03110204081632653, 0.019918367346938776, 0.0026326530612244894, -0.0038061224489795917, -0.024204080612244896, -0.03237755, -0.032030611224489795, 0.007857142857142856, 0.02384693775510204, 0.014581631632653061, 0.07646938367346938, -0.06853061020408163, -0.03883673265306122, -0.008326530612244898, 0.02291836632653061, -0.002408163265306122, 0.0883673469387755, -0.11866326224489795, -0.11921427653061224, 0.21244898163265305, -0.2079898, -0.0063775510204081625, 0.004959183673469387, 0.05162244591836734, -0.1351836744897959, -0.022479590816326528, -0.01854081530612245, -0.044306121428571425, 0.27963263673469385, -0.0063265306122448975, -0.1375510132653061, -0.023755101020408162, 0.022663264285714285, 0.031193877551020408, 0.06321428367346937, 0.1695918306122449, 0.04895918265306122, -0.02111224489795918, 0.08710203775510203, 0.08710203775510203, 0.14777550918367346, 0.04622448775510204, 0.04255102040816326, -0.0005510204081632653, -0.0005510204081632653, 0.14314285306122448, 0.1898061132653061, -0.023765305102040814, 0.009591836734693876, 0.031275509183673465, -0.002540816326530612, -0.028999997959183673, 0.0011530612244897958, -0.013826530612244897, -0.006959183673469387, -0.0012653061224489795, 0.0067142857142857134, -0.040367345918367346, 0.04999999795918367, -0.013387755102040816, -0.046040814285714285, 0.028591836734693878, 0.004183673469387755, -0.010163264285714286, -0.04649999795918367, -0.06042856938775509, 0.0056836734693877546, 0.005418367346938775, 0.013489795918367346, 0.08181632142857143, -0.03759183469387755, 0.023806122448979592, 0.002683673469387755, 0.015561224489795918, -0.04539795714285714, 0.009071428571428572, -0.01973469387755102, -0.08718367142857142, 0.016795918367346938, 0.0016836734693877551, -0.047459182653061226, -0.04212244693877551, 0.1448367326530612, -0.029948980612244894, 0.02496938775510204, 0.009928571428571427, -0.05096938571428571, -0.04953061122448979, 0.24208163775510202, 0.24208163775510202, -0.031122449999999996, -0.024010203061224488, 0.00804081632653061, -0.005724489795918367, -0.005724489795918367, 0.0065306122448979586, -0.06645918469387756, 0.015908163265306124, -0.020010204081632652, 0.10127550510204081, 0.008744897959183673, 0.023622448979591835, 
15, 0.016947786923228302, -0.03095918163265306, -0.03493877346938775, -0.0038265306122448974, -0.037795916326530614, 0.0023061224489795916, 0.018346937755102037, 0.003336734693877551, 0.006346938775510204, -0.01851020408163265, -0.019510203061224488, -0.07153061020408162, -0.13466326530612244, -0.08556122040816326, 0.423418356122449, -0.006122448979591836, -0.04459183469387755, 0.017326530612244897, -0.013734693877551019, -0.018785714285714284, -0.025591834693877547, -0.010510204081632652, -0.020387755102040814, -0.005428571428571428, 0.056642853061224484, -0.036397959183673466, 0.006591836734693877, 0.019561224489795918, 0.03859183571428571, 0.035244898979591835, 0.0111734693877551, -0.033612244897959186, -0.06042856938775509, -0.05744897551020407, 0.01236734693877551, 0.01236734693877551, -0.026224489795918366, -0.026224489795918366, -0.003040816326530612, -0.037142856122448976, -0.0451938775510204, -0.019387755102040816, 0.004622448979591837, 0.013571428571428571, 0.0066122448979591825, -0.0035204081632653063, 0.002551020408163265, -0.009479591836734693, -0.009397958163265305, 0.0025714285714285713, -0.001357142857142857, -0.028887753061224486, 0.017051020408163264, -0.020132653061224488, -0.002663265306122449, 0.006510204081632652, 0.001724489795918367, -0.0077346938775510205, -0.032132651020408166, -0.029275508163265303, -0.01709183571428571, -0.017326530612244897, -0.2029591795918367, 0.09659183265306122, 0.47674490510204076, 0.057581632653061224, 0.016224488775510203, 0.0023571428571428567, 0.00810204081632653, -0.03386734693877551, -0.02797959081632653, -0.009510204081632653, -0.03265306020408163, -0.019295918367346936, -0.024204080612244896, 0.025234693877551017, -0.027336733673469383, -0.008255102040816326, -0.006979591836734694, -0.026714284693877547, -0.031071426530612244, 0.003408163265306122, 0.001163265306122449, -0.029040815306122448, -0.02391836632653061, -0.02391836632653061, 0.05515306020408163, 0.05515306020408163, -0.020091836734693874, -0.007928571428571429, -0.012020408163265306, -0.022499998979591835, -0.02168367244897959, -0.009673469387755101, -0.02397959183673469, -0.018999998979591835, -0.018693877551020407, -0.013581632653061223, -0.015489794897959182, -0.009020408163265306, -0.009, 0.01040816326530612, -0.011744897959183672, 0.06054081428571428, -0.01168367244897959, -0.13033673469387755, 0.09756122346938775, 0.01504081530612245, 0.03409183469387755, -0.001030612244897959, 0.025826531632653058, 0.04263265102040816, 0.03279591734693878, 0.07414285612244897, -0.1639897969387755, 0.02180612244897959, 0.008479591836734692, 0.04323469183673469, 0.06654081326530611, -0.034336733673469386, -0.018326530612244898, -0.0060714285714285705, -0.006418367346938775, -0.019132653061224487, 0.010163264285714286, 0.030693877551020408, 0.044969386734693875, -0.012846938775510205, -0.00596938775510204, 0.0261020387755102, -0.05697958979591836, -0.05119387551020408, 0.02777550918367347, 0.0023163265306122447, -0.0060204081632653055, -0.0060204081632653055, 0.015663264285714285, 0.015663264285714285, 0.0016326530612244896, 0.022877551020408164, -0.009816326530612244, 0.005, 0.0018265306122448978, -0.0019693877551020408, -0.0006326530612244897, 0.004459183673469388, -0.005071428571428571, -0.0004999999999999999, 0.006775510204081632, 0.005744897959183673, -0.006306122448979591, 
16, 0.012968841323673813, -0.001357142857142857, -0.007285714285714286, -0.006183673469387755, 0.011877551020408163, -0.01023469387755102, 0.0029591836734693877, 0.002183673469387755, 0.002183673469387755, -0.032836733673469384, 0.007183673469387755, -0.01089795918367347, -0.006908163265306122, 0.006030612244897959, 0.00013265306122448977, 0.011081632653061224, -0.0008877551020408162, 0.0010408163265306122, -0.003928571428571428, -0.00896938775510204, 0.003020408163265306, -0.005948979591836734, 0.004030612244897959, 0.0029693877551020408, -0.007979591836734693, -0.008346938775510203, 0.0020918367346938775, -0.002908163265306122, -0.011867345918367347, -0.0030816326530612244, -0.015132652040816324, -0.00022448979591836734, 0.0006836734693877551, 0.009510204081632653, 0.005469387755102041, 0.0004183673469387755, -0.007551020408163265, -0.001530612244897959, -0.008448979591836735, -0.007357142857142856, -0.00032653061224489796, -0.0023571428571428567, 0.0006632653061224489, 0.006683673469387755, 0.012642857142857141, 0.005622448979591837, -0.0063775510204081625, -0.01060204081632653, -0.01661224489795918, -0.010755102040816325, 0.00024489795918367346, -0.009, -0.0063775510204081625, -0.0223469387755102, -0.013530611224489794, -0.014102040816326529, -0.0027346938775510204, -0.019591836734693877, -0.019591836734693877, -0.036642855102040815, -0.011877551020408163, -0.0073265306122448975, -0.011285713265306122, -0.007857142857142856, -0.0065714275510204085, -0.006193877551020408, -0.008448979591836735, -0.013153060204081631, -0.021122447959183673, -0.006357142857142857, -0.011153061224489795, -0.00943877551020408, -0.010438775510204081, -0.0077346938775510205, -0.005285714285714285, -0.0003877551020408163, -0.009755101020408162, -0.012683673469387754, -0.006112244897959184, -0.0220510193877551, -0.010214285714285712, 0.0016326530612244896, -0.0005408163265306122, -0.007806122448979591, -0.009295918367346938, -0.006724489795918367, -0.01314285612244898, -0.010346938775510203, 0.009448979591836734, 7.142857142857142e-05, -0.00024489795918367346, -0.006928571428571428, 0.001520408163265306, -0.006244897959183673, 0.0009081632653061224, 0.010969386734693876, 0.0062755102040816324, -0.004948979591836734, 0.0021224489795918363, -0.0012959183673469385, 0.00035714285714285714, -0.006306122448979591, -0.016755101020408163, -0.040612244897959185, 0.03896938571428571, 0.0009285714285714286, -0.0032857142857142855, 0.0007755102040816326, 0.0007755102040816326, -0.0069387755102040816, 0.030928570408163263, -0.0005306122448979591, -0.026510203061224487, 0.008122448979591837, 0.002857142857142857, 0.0014693877551020407, 0.0005816326530612245, -0.0021020408163265306, 0.0021530612244897956, 0.0013979591836734693, 0.005428571428571428, -0.012744897959183672, 0.006051020408163264, 0.0009693877551020407, 0.0681428581632653, -0.10603060510204079, 0.02873469387755102, 0.005306122448979591, 0.0005204081632653061, 0.009632653061224489, -0.013918367346938774, 0.011918367346938775, 0.007989795918367347, 0.009612244897959183, 0.009489794897959184, 0.007418367346938775, -0.006928571428571428, 0.0017755102040816323, -0.0034183673469387753, -0.0027755102040816324, 0.00826530612244898, -0.0007959183673469387, 0.011153061224489795, -0.009540816326530612, 0.012397959183673469, 0.008683673469387754, -0.022887755102040816, 0.018346937755102037, 0.002244897959183673, 0.00610204081632653, 0.005806122448979592, 
17, 0.012161477887067845, 0.0021632653061224487, 0.004163265306122449, 0.0021122448979591837, -0.00286734693877551, -0.007897959183673468, -0.004846938775510204, 0.0030816326530612244, 0.006142857142857142, 0.012122448979591836, -0.006836734693877551, -0.00889795918367347, -0.007846938775510202, -0.003877551020408163, 0.001163265306122449, 0.00013265306122448977, 0.0011530612244897958, -0.0038673469387755103, -0.0038469387755102036, -0.00186734693877551, 0.0021326530612244894, 0.0030918367346938775, -0.002877551020408163, -0.002887755102040816, -0.0008775510204081632, -0.00286734693877551, -0.005826530612244897, -0.005846938775510203, 0.00016326530612244898, -0.000846938775510204, 0.0001530612244897959, -0.0018571428571428571, -0.0038877551020408165, -0.00586734693877551, -0.004908163265306122, -0.0009081632653061224, 0.0010612244897959182, 3.061224489795918e-05, -0.002979591836734694, -0.00396938775510204, 0.0, 0.004010204081632653, 0.0029999999999999996, 0.0, 0.0, -0.003959183673469388, 0.001989795918367347, 0.003999999999999999, 0.0019387755102040815, 0.0009081632653061224, -9.183673469387755e-05, -0.0004387755102040816, -0.001846938775510204, -0.0035204081632653063, -0.0039387755102040815, -0.0036530612244897957, -0.005316326530612245, -0.0013163265306122447, -0.00031632653061224486, 0.0014999999999999998, -0.002326530612244898, -0.0020204081632653062, -0.00473469387755102, -0.0024591836734693877, -0.0010816326530612244, -0.0009693877551020407, -0.0023877551020408164, -0.0031122448979591833, -0.003428571428571428, -0.0021632653061224487, -0.004295918367346939, -0.004826530612244898, -0.005, -0.0036632653061224488, -0.002551020408163265, -0.0023061224489795916, -0.002826530612244898, -0.004418367346938775, -0.0035612244897959182, -0.0022653061224489797, -0.001346938775510204, -0.0011224489795918365, 0.0002551020408163265, 0.0012244897959183673, -0.0002857142857142857, 0.0006836734693877551, -0.00022448979591836734, -0.0010816326530612244, 0.0001020408163265306, 0.0037857142857142855, 0.004010204081632653, 0.0010816326530612244, 0.002183673469387755, 0.004071428571428571, 0.008459183673469386, 0.008091836734693877, 0.006183673469387755, 0.006163265306122449, 0.008489795918367345, 0.00846938775510204, 0.008183673469387753, 0.005030612244897958, 0.005795918367346939, 0.004387755102040816, 0.005326530612244898, 0.002193877551020408, -0.004775510204081633, 0.01046938775510204, 0.004397959183673469, 0.005010204081632653, 0.01087755, 0.007408163265306121, 0.0034795918367346934, 0.003275510204081632, 0.003346938775510204, 0.0031122448979591833, 0.002061224489795918, 0.0019081632653061224, -0.0011020408163265306, 0.0008265306122448978, 0.002846938775510204, 0.0017448979591836735, 0.0018571428571428571, -0.0009591836734693877, -0.0008163265306122448, -0.001530612244897959, 0.0006632653061224489, 0.002663265306122449, 0.0017959183673469388, 0.0017755102040816323, 0.0028367346938775505, 0.0008163265306122448, -0.0022244897959183673, -0.0020918367346938775, -0.004173469387755101, -0.0012448979591836735, 0.0015612244897959182, 0.0004081632653061224, -0.0017346938775510204, -0.0017755102040816323, -0.003877551020408163, -0.0027653061224489793, 0.00021428571428571425, 0.001173469387755102, 0.0002551020408163265, -0.0014081632653061224, 0.0028367346938775505, 0.004867346938775509, 0.007183673469387755, 0.00889795918367347, 0.004204081632653061, 
18, 0.1302655826913569, -0.0060714285714285705, -0.008051019387755102, -0.005010204081632653, -0.001989795918367347, -0.0020102040816326527, -0.0029999999999999996, -0.0030102040816326527, -0.0030102040816326527, -0.0060204081632653055, -0.004091836734693877, 0.0038061224489795917, 0.0038061224489795917, 0.0007857142857142856, 0.0006938775510204081, 0.0006530612244897959, -0.0014183673469387753, -0.0033265306122448974, -0.004377551020408163, -0.00536734693877551, -0.004418367346938775, 0.0006122448979591836, 0.0035612244897959182, 0.0006224489795918367, -0.005418367346938775, -0.00933673469387755, -0.006357142857142857, 0.0006938775510204081, 0.006693877551020408, 0.0017551020408163264, 0.002857142857142857, 0.002857142857142857, -0.0011224489795918365, -0.005061224489795918, -0.015020408163265305, -0.038877548979591836, -0.038877548979591836, -0.06968367448979591, -0.0016530612244897956, -0.03749999795918367, -0.010448979591836735, -0.020132653061224488, -0.026204081632653056, 0.006795917346938775, 0.03676530612244898, 0.06394897755102041, 0.035306121428571424, 0.010642857142857143, -0.07455102040816326, 0.008367345918367346, 0.07489795612244897, 0.010989795918367346, 0.009418367346938775, 0.005591836734693877, 0.0031224489795918364, 0.004459183673469388, 0.011867345918367347, 0.010551020408163265, 0.010551020408163265, 0.010714285714285713, 0.015979591836734693, 0.01640816326530612, 0.01640816326530612, 0.015357142857142856, 0.003836734693877551, 0.002877551020408163, 0.014622448979591836, 0.018275509183673468, 0.0065306122448979586, 0.0026428571428571425, 0.006030612244897959, 0.008693877551020407, 0.009683673469387755, 0.009357142857142857, 0.0064285714285714285, 0.013806122448979592, 0.018999998979591835, 0.01747959081632653, 0.030999998979591836, 0.023663264285714285, 0.013193877551020408, 0.013193877551020408, 0.00639795918367347, -0.016193876530612245, -0.009581632653061223, -0.04032652857142857, -0.04032652857142857, 0.02047959183673469, -0.0007142857142857143, -0.019530611224489795, -0.059714286734693874, -0.01765306020408163, -0.016295917346938773, -0.03430612244897959, -0.06289795918367345, -0.07120407959183672, -0.07064285306122449, -0.09560203673469386, -0.08685714081632652, -0.07270407959183674, -0.06635713979591835, 0.0024285714285714284, -0.0010918367346938775, -0.0014591836734693876, 0.003061224489795918, 0.006112244897959184, 0.005469387755102041, -0.0022244897959183673, -0.0022244897959183673, 0.0008061224489795918, 0.0008061224489795918, 0.0046326530612244895, 0.0046326530612244895, 0.002397959183673469, -0.004683673469387755, -0.0024591836734693877, -0.004346938775510204, -0.0075612244897959174, -0.00933673469387755, -0.008571428571428572, -0.00636734693877551, -0.00660204081632653, -0.007193877551020407, -0.007244896938775509, -0.006724489795918367, -0.004663265306122448, -0.0019591836734693877, -9.183673469387755e-05, 0.0028061224489795917, 0.004724489795918367, 0.00032653061224489796, 0.00032653061224489796, -0.014857141836734694, -0.0052448979591836736, 0.006826530612244898, -0.02640816326530612, -0.02640816326530612, -0.001336734693877551, 0.016142857142857143, -0.028795916326530613, -0.05231632244897958, -0.03341836632653061, -0.04814285714285714, -0.017602040816326527, -0.00223469387755102, -0.006132653061224489, -0.030887753061224484, -0.03693877448979591, 0.08462244795918367, 0.14791836530612243, 0.021653061224489796, 
19, 0.2742159507419768, 0.05011224285714285, 0.0865510163265306, 0.06013265102040816, -0.027602040816326532, -0.06451020408163265, -0.06451020408163265, -0.03251020408163265, -0.038622446938775506, -0.038622446938775506, -0.034316325510204075, -0.009214285714285715, 0.06247958979591836, 0.06247958979591836, -0.03357142857142857, -0.030285713265306123, -0.022061223469387756, -0.0055306122448979585, -0.020306122448979592, 0.007724489795918367, 0.01684693775510204, -0.0006020408163265305, 0.056428568367346936, 0.04987755, 0.01560204081632653, -0.04309183469387755, -0.08054081224489795, -0.009806122448979592, 0.05293877142857142, 0.08113264999999999, 0.036969385714285714, -0.07455102040816326, -0.07545918265306122, -0.09396938673469388, -0.09396938673469388, -0.030693877551020408, 0.09125509999999999, 0.05162244591836734, 0.00636734693877551, 0.0016530612244897956, 0.0016530612244897956, 0.007112244897959183, -0.0019591836734693877, -0.0051734693877551014, -0.016132652040816323, -0.04106122346938775, -0.04085714081632653, -0.04771428469387755, -0.04828571326530612, -0.05079591734693877, -0.061316325510204085, -0.04889795714285714, 0.011724489795918367, 0.029030612244897953, 0.036795917346938774, -0.007693876530612244, -0.007693876530612244, 0.009377551020408163, -0.03496938775510204, -0.03496938775510204, 0.030551020408163262, -0.01, 0.005163265306122449, 0.005163265306122449, -0.061459182653061224, -0.053459180612244896, -0.047020407142857136, -0.049561222448979585, -0.040489793877551014, -0.08316326530612243, -0.025295917346938774, -0.04574489489795918, -0.10038775408163264, -0.06473469489795917, -0.031428571428571424, 0.0016428571428571427, 0.030142856122448977, 0.04105102040816326, -0.00896938775510204, -0.03245918469387755, -0.05073469183673469, -0.026224489795918366, -0.009051020408163265, 0.026816327551020404, 0.026816327551020404, 0.04849999795918367, 0.03372448775510204, 0.010724489795918366, 0.01987755, 0.05731632551020408, 0.05731632551020408, 0.0607551, 0.07621428163265306, 0.05933673367346938, 0.05697958979591836, 0.04687755102040816, 0.04187755102040816, 0.03545918367346938, 0.04703061020408163, 0.03870408163265306, 0.07545918265306122, 0.057010201020408165, 0.07851020408163265, 0.0786734663265306, 0.0857551, 0.07539796020408163, 0.07539796020408163, 0.06266326326530612, 0.02555102142857143, 0.02555102142857143, 0.058561222448979586, 0.03297959081632653, 0.024857142857142855, 0.024857142857142855, -0.031510202040816324, 0.00870408163265306, -0.004214285714285715, -0.00520408163265306, 0.005581632653061224, 0.04697959081632652, 0.06407142857142857, 0.07640816122448979, 0.09893877142857142, 0.06543877142857142, 0.05515306020408163, 0.03658163265306122, 0.014142856122448979, -0.024857142857142855, -0.036397959183673466, -0.05685714387755101, -0.03339795714285714, -0.026867346938775506, -0.05338775306122449, -0.042806121428571424, -0.042806121428571424, -0.05284693775510203, -0.07920408163265305, -0.07144897551020407, -0.05807142448979591, -0.07010203877551019, -0.07010203877551019, -0.0713775469387755, -0.07273469081632652, -0.08193877244897958, -0.09118367244897958, -0.07421428469387754, -0.06759183775510204, -0.0522244887755102, -0.031520408163265304, 0.007540816326530611, 0.05226530612244897, 
20, 0.18302840975518458, -0.06885714081632652, -0.01246938775510204, 0.09464285204081632, 0.17352040918367345, 0.1495408163265306, 0.06916326530612243, 0.0017959183673469388, -0.05117347040816326, -0.10463264489795916, -0.12139796020408161, -0.04382652857142857, 0.06459183265306122, 0.05743877653061224, -0.018163264285714284, -0.03775510204081632, -0.04087755, -0.02626530714285714, -0.012561224489795918, 0.01514285612244898, 0.016785714285714286, -0.011540816326530612, -0.04686734489795918, -0.05703061224489795, -0.029214285714285713, 0.06564285714285714, 0.06564285714285714, 0.1158469306122449, 0.005255102040816326, 0.005255102040816326, -0.03492857142857143, -0.05288775510204081, -0.03480612040816326, -0.0017959183673469388, 0.004285714285714286, -0.0038979591836734687, -0.012989794897959183, -0.014234692857142855, -0.0043265306122448974, 0.008571428571428572, 0.0004591836734693877, 0.0004591836734693877, -0.027653061224489794, -0.04820407959183673, -0.06916326530612243, -0.0725102, -0.056408163265306115, -0.0049387755102040815, 0.04008163265306122, 0.03684693775510204, 0.010918367346938775, 0.11748979285714284, 0.14241836530612245, 0.1251632581632653, 0.08522448469387754, 0.061693878571428565, 0.06294897653061224, 0.05860203979591836, 0.041989793877551015, 0.023622448979591835, 0.02619387551020408, -0.04251020306122449, -0.15398979183673467, -0.11965305204081632, -0.019316326530612243, 0.03320408061224489, 0.026806121428571427, 0.0421020387755102, 0.03287755102040816, 0.0064285714285714285, -0.028295918367346937, -0.05966326428571428, -0.07674489693877551, -0.031612244897959184, -0.01779591836734694, -0.02221428469387755, -0.02221428469387755, -0.00670408163265306, -0.01483673469387755, -0.01483673469387755, -0.018142857142857145, -0.02777550918367347, -0.021622448979591837, -0.006153061224489795, 0.0014693877551020407, -0.00037755102040816323, -0.015673468367346937, -0.03394897755102041, -0.04679591632653061, -0.04756122244897959, -0.03619387755102041, -0.03619387755102041, -0.029071426530612243, -0.03309183571428571, -0.04186734591836735, -0.03037755, -0.025408163265306122, -0.049102038775510205, -0.08038775, -0.07983672959183673, -0.0927040775510204, 0.07883673469387754, 0.11368367142857141, 0.07421428469387754, 0.0623571387755102, 0.03419387755102041, 0.03631632551020408, 0.02216326530612245, 0.010173469387755102, 0.0006530612244897959, -0.006744897959183673, -0.0876530581632653, -0.11562243979591837, -0.06998979285714285, 0.007418367346938775, 0.0452244887755102, 0.046448978571428566, 0.018775510204081632, 0.017928570408163265, -0.014816326530612243, -0.0370816306122449, -0.024224489795918364, -0.0212244887755102, -0.01271428469387755, 0.03312244693877551, 0.07671428571428571, 0.07671428571428571, 0.04287755, -0.0002857142857142857, -0.0002857142857142857, -0.007540816326530611, -0.009112244897959183, -0.004918367346938775, 0.005928571428571428, 0.009346938775510204, 0.015163265306122449, 0.013561224489795916, 0.007265306122448979, 0.0034999999999999996, -0.010836733673469386, -0.023469386734693874, -0.023469386734693874, -0.03823469183673469, -0.04602040612244898, -0.050724489795918364, -0.04542857142857142, -0.03579591632653061, -0.042979589795918365, -0.0669489775510204, -0.08544897551020408, -0.060857138775510196, 
21, 0.06530475936426779, -0.04163265204081632, -0.04163265204081632, -0.05243877346938775, -0.03224489591836734, 0.014214285714285714, 0.11937754489795918, 0.11937754489795918, 0.04883673469387755, -0.025102039795918366, -0.09514285612244897, -0.09514285612244897, -0.09196938265306122, -0.09196938265306122, -0.007387755102040816, 0.1410306112244898, 0.12712245102040814, 0.12712245102040814, 0.028295918367346937, -0.061775507142857136, -0.14479590918367344, -0.12093877346938774, -0.040755102040816324, 0.06916326530612243, 0.0611836693877551, 0.013234692857142854, -0.0247244887755102, -0.022397958163265307, -0.00423469387755102, 0.011295918367346938, 0.02159183571428571, -7.142857142857142e-05, -0.019806121428571428, -0.02057142857142857, -0.02535714183673469, -0.027112242857142855, -0.008857141836734693, 0.015255102040816326, 0.02443877551020408, 0.011428571428571429, 0.0075306122448979594, 0.009489794897959184, 0.009510204081632653, 0.009551020408163266, 0.00260204081632653, -0.008346938775510203, -0.016306121428571428, -0.01727550918367347, -0.013265306122448979, -0.0002959183673469387, 0.005673469387755101, -0.0420510193877551, -0.0420510193877551, 0.022846937755102038, 0.09678571224489796, 0.13810203979591837, 0.07772448673469387, 0.07772448673469387, 0.010275510204081632, -0.003642857142857143, 0.013499998979591836, 0.013499998979591836, 0.013183673469387754, 0.013183673469387754, -0.10616326836734694, -0.19056121938775508, 0.0056836734693877546, 0.0056836734693877546, 0.07276530204081631, 0.09262244897959182, 0.09430612244897958, 0.05026530510204081, 0.015357142857142856, -0.04098979489795918, -0.057581632653061224, -0.03139795714285714, -0.01190816224489796, -0.02034693775510204, -0.03908163163265306, -0.04008163265306122, -0.02397959183673469, 0.009632653061224489, 0.024132652040816324, 0.007193877551020407, -0.01046938775510204, -0.0077142857142857135, 0.004255102040816326, 0.017122447959183672, 0.021510203061224486, 0.024051020408163263, 0.020918367346938773, 0.013479591836734693, 0.0016632653061224487, -0.0063775510204081625, -0.0033265306122448974, 0.0007551020408163265, -0.002693877551020408, -0.006153061224489795, -0.00610204081632653, -0.002887755102040816, -0.0037653061224489797, 0.04194897959183674, 0.04194897959183674, 0.09534693469387755, 0.14046937857142855, 0.15439794999999998, 0.13975509591836735, 0.13975509591836735, 0.07805101734693877, 0.045214283673469385, 0.03760203979591836, 0.03760203979591836, 0.015010204081632653, 0.015010204081632653, -0.09532652959183673, -0.1628979489795918, -0.07779591530612245, -0.07779591530612245, -0.034316325510204075, 0.016469386734693874, 0.024938774489795916, 0.03486734591836735, 0.03297959081632653, 0.021551020408163264, 0.0005408163265306122, -0.007244896938775509, -0.016959183673469384, -0.020846938775510204, -0.03579591632653061, -0.0277040806122449, -0.01787755102040816, -0.008540816326530611, -0.0027959183673469386, 0.0027448979591836735, 0.002040816326530612, 0.004122448979591836, 0.008316326530612244, 0.007816326530612245, 0.0027346938775510204, 0.006857142857142856, 0.009346938775510204, 0.0061734693877551015, 0.0022653061224489797, 0.0002959183673469387, 0.0006632653061224489, 0.0029897959183673465, 0.005428571428571428, 0.004520408163265306, 0.0014999999999999998, 0.0012142857142857142, -0.002040816326530612, 
22, 0.030208456684343903, 0.005714285714285714, -0.0002857142857142857, -0.006306122448979591, -0.00736734693877551, -0.00842857142857143, -0.005520408163265306, 0.0014285714285714286, -0.00560204081632653, -0.00560204081632653, -0.0106734693877551, -0.012622448979591836, -0.012693877551020407, -0.011571428571428571, -0.013581632653061223, -0.00539795918367347, 0.0006224489795918367, -0.004255102040816326, -0.005255102040816326, -0.005255102040816326, 0.003724489795918367, 0.0017551020408163264, -0.0002040816326530612, -0.00313265306122449, -0.004081632653061224, -0.006999999999999999, 5.10204081632653e-05, 0.002061224489795918, 0.0011122448979591837, -0.005816326530612244, -0.005816326530612244, -0.0017755102040816323, -0.004744897959183673, -0.00873469387755102, -0.0037142857142857142, -0.0027244897959183673, -0.005744897959183673, -0.005744897959183673, -0.006775510204081632, -0.004795918367346938, -0.004795918367346938, -0.005826530612244897, -0.004846938775510204, -0.003877551020408163, -0.0029387755102040815, -0.0020918367346938775, -0.0020918367346938775, -0.001163265306122449, -0.0032448979591836735, -0.0032959183673469386, -0.0033571428571428567, -0.009877551020408163, -0.011408163265306122, -0.004959183673469387, -0.0035714285714285713, -0.004316326530612244, -0.003336734693877551, -0.007897959183673468, -0.011928571428571427, -0.011928571428571427, -0.009285714285714284, -0.0029591836734693877, -0.00586734693877551, -0.00423469387755102, -0.002326530612244898, -0.0045, -0.005999999999999999, -0.008642857142857141, -0.007224489795918367, -0.00260204081632653, -0.0007244897959183674, -0.001357142857142857, -0.0010918367346938775, -0.001489795918367347, -0.0052448979591836736, -0.00260204081632653, -0.0022857142857142855, -0.0017448979591836735, -0.0004999999999999999, 0.0020816326530612244, 0.0020816326530612244, -0.0005816326530612245, -0.0022755102040816324, -0.00473469387755102, -0.005765306122448979, -0.009989795918367347, -0.009479591836734693, -0.0077346938775510205, -0.008061224489795918, -0.006357142857142857, -0.006357142857142857, -0.0020204081632653062, 0.0026530612244897956, -0.00032653061224489796, -0.0017448979591836735, -0.0031530612244897956, -0.0031530612244897956, -0.001183673469387755, 0.0014591836734693876, 0.0012653061224489795, 0.0013265306122448978, -0.005030612244897958, -0.006183673469387755, -0.0014591836734693876, 0.0009489795918367345, -0.0005816326530612245, -0.0032448979591836735, -0.003693877551020408, -0.007295918367346938, -0.007295918367346938, -0.01170408163265306, -0.009428571428571427, -0.008653061224489795, -0.010969386734693876, -0.012948979591836735, -0.013000000000000001, -0.009989795918367347, -0.00660204081632653, -0.004744897959183673, 0.0010102040816326531, 0.0009387755102040815, -0.0019183673469387755, -0.0027959183673469386, -0.0005306122448979591, -0.0012346938775510204, -0.000857142857142857, 0.004397959183673469, 0.006255102040816326, 0.004571428571428571, 0.003795918367346938, 0.003795918367346938, 0.0019285714285714284, 0.0020816326530612244, 0.004908163265306122, 0.003040816326530612, 0.005704081632653061, 0.004693877551020408, 0.0034183673469387753, 0.004346938775510204, 0.004918367346938775, 0.004918367346938775, 0.0045816326530612244, 0.002520408163265306, 0.0012959183673469385, 0.003020408163265306, 0.002061224489795918, 0.002061224489795918, 0.0015510204081632653, 0.0031224489795918364, -0.0012142857142857142, 0.001357142857142857, 
23, 0.03770463346454785, -0.0004285714285714285, -0.0004285714285714285, -0.005459183673469387, -0.013520407142857143, -0.014581631632653061, -0.008653061224489795, -0.0027857142857142855, 0.005112244897959183, 0.005, 0.0029183673469387753, -0.0031224489795918364, -0.00713265306122449, -0.006142857142857142, 0.0008877551020408162, 0.0039387755102040815, 0.000989795918367347, -0.003979591836734694, -0.002948979591836734, -0.0019285714285714284, -0.0029183673469387753, -0.004877551020408163, -0.00886734693877551, -0.004908163265306122, -0.0008877551020408162, -0.002887755102040816, 0.0011122448979591837, 0.0011122448979591837, 0.005122448979591836, -0.001877551020408163, 0.00313265306122449, 0.011051020408163264, 0.009020408163265306, 0.004908163265306122, 0.0029285714285714284, 0.002846938775510204, 0.008908163265306123, 0.012918367346938773, 0.016010203061224488, 0.012091835714285713, 0.012142857142857141, 0.006408163265306121, 0.009530611224489796, 0.017142857142857144, 0.017142857142857144, -0.015448979591836734, 0.011755102040816326, 0.016153061224489795, -0.0023061224489795916, 0.016836733673469387, -0.016326530612244896, 0.005061224489795918, 0.005061224489795918, -4.0816326530612245e-05, -0.0004897959183673469, 0.003999999999999999, 0.007540816326530611, 0.008408163265306122, 0.005765306122448979, -0.001357142857142857, 0.0005408163265306122, 0.007969387755102041, 0.009306121428571427, 0.007775510204081633, 0.0036326530612244895, -0.001183673469387755, -0.0023775510204081633, 0.004336734693877551, 0.010377551020408162, 0.0049387755102040815, 0.0015714285714285713, -0.001346938775510204, 0.004418367346938775, 0.006683673469387755, 0.004275510204081632, 0.00011224489795918367, 0.00523469387755102, 0.00523469387755102, 0.0021326530612244894, 0.0016326530612244896, 0.006255102040816326, 0.007918366326530611, 0.00996938775510204, 0.01415306020408163, 0.018438774489795917, 0.016999998979591837, 0.019755102040816326, 0.019918367346938776, 0.026663265306122445, 0.01776530612244898, 0.021040815306122448, 0.01394897857142857, 0.005561224489795918, -0.0032448979591836735, -0.0032448979591836735, 0.011693877551020406, -0.018459182653061224, -0.010724489795918366, 0.016428571428571428, -0.007020407142857143, 0.0027448979591836735, -0.0030816326530612244, -0.0030816326530612244, -0.0002857142857142857, 0.001510204081632653, 0.0012653061224489795, 0.001897959183673469, 0.0032653061224489793, 0.0007857142857142856, 0.0029897959183673465, -0.0005204081632653061, -0.001714285714285714, -0.0008877551020408162, -0.0007755102040816326, -0.0037857142857142855, -0.0015408163265306122, -0.0014285714285714286, -0.0011122448979591837, -0.0009387755102040815, -0.0006224489795918367, -0.004387755102040816, -0.0011020408163265306, 0.0010816326530612244, 0.00510204081632653, 0.004387755102040816, 0.0034183673469387753, 0.0017959183673469388, 0.0017959183673469388, 0.002948979591836734, 0.002061224489795918, 0.004336734693877551, 0.00413265306122449, 0.007244896938775509, 0.00610204081632653, 0.007510204081632652, 0.006642857142857143, -0.0005816326530612245, -0.0006632653061224489, -0.003724489795918367, -0.010326530612244898, -0.017612244897959182, -0.026051019387755097, -0.026683673469387756, -0.03837755102040816, -0.03837755102040816, -0.022959182653061225, -0.0193265306122449, 0.0013265306122448978, 0.047765304081632654, 0.051377548979591826, 0.0662040775510204, 
24, 0.4500601503293927, -0.011153061224489795, 0.005653061224489796, 0.014999999999999998, 0.022765305102040813, 0.007408163265306121, -0.0386530612244898, -0.06677550918367346, -0.047683673469387754, -0.03914285714285714, -0.030153059183673468, -0.02294897857142857, -0.008163265306122448, -0.006744897959183673, 0.007663265306122448, 0.02004081632653061, 0.009153061224489795, -0.011591836734693878, -0.013418366326530613, -0.006040816326530612, 0.0039897959183673466, 0.05614285612244897, 0.09127550612244897, 0.06958162857142856, 0.028632651020408163, -0.01962244795918367, -0.046510204081632645, -0.031428571428571424, -0.05588775408163265, 0.003193877551020408, -0.006244897959183673, -0.018397959183673467, -0.0018061224489795919, 0.016959183673469384, 0.001336734693877551, -0.018520408163265303, -0.061948980612244894, -0.09529591836734692, -0.12647958469387754, -0.10117346530612244, -0.04106122346938775, 0.01563265306122449, 0.07926530408163264, 0.07630612142857142, 0.06649999591836733, 0.06619387755102041, 0.042265304081632656, 0.06609183775510204, 0.020459183673469387, -0.0060204081632653055, -0.029346936734693872, 0.004122448979591836, 0.012857142857142857, 0.008887755102040816, -0.006336734693877551, -0.015551020408163266, -0.002714285714285714, 0.00736734693877551, 0.004540816326530612, 0.013428570408163264, 0.023499998979591836, 0.023551019387755102, 0.017867346938775508, 0.025102039795918366, 0.06086734489795918, 0.07163264897959183, 0.07476530510204081, 0.0662755112244898, 0.05918367142857142, 0.04610203979591836, 0.03437755102040816, -0.009816326530612244, -0.05840816020408163, -0.03925510204081632, 0.01313265306122449, 0.08410203775510204, 0.1090918387755102, 0.05396938469387755, 0.006295918367346938, -0.05861224591836734, -0.06477550612244898, -0.03171428469387755, -0.030785714285714284, -0.026642856122448978, -0.04393877448979591, -0.027551018367346934, -0.0009999999999999998, -0.0381530612244898, -0.06168367346938775, -0.08506122244897958, -0.11820407551020408, -0.09911223979591836, -0.06099999591836734, -0.046448978571428566, -0.06458163265306122, -0.05997958877551019, -0.056173467346938774, -0.07032652857142857, -0.0019489795918367343, -0.010285714285714285, 0.0019285714285714284, 0.06257142959183673, 0.0557755081632653, 0.041928571428571426, 0.035714284693877545, 0.012969386734693876, 0.02563265204081632, 0.029571427551020407, 0.05061224387755102, 0.05557142959183673, 0.05630612346938775, 0.0638469387755102, 0.07873469489795917, 0.09468366938775509, 0.11090816326530611, 0.08762244693877551, 0.09255102142857141, 0.09847959081632653, 0.10665306020408162, 0.08042856734693878, 0.026010205102040815, -0.016836733673469387, -0.014857141836734694, 0.03482652857142857, 0.06937755, 0.07243877142857143, 0.06442857040816326, 0.031846937755102035, -0.0020204081632653062, -0.07375509795918367, -0.05295918265306122, -0.03621428571428571, -0.042591836734693876, -0.048928571428571425, -0.06574489591836734, -0.08248979387755101, -0.09273469489795917, -0.08497958877551019, -0.08007142653061224, -0.047418365306122444, -0.038122446938775506, -0.03619387755102041, -0.034499998979591835, -0.009122448979591835, -0.009540816326530612, -0.009051020408163265, 0.01709183571428571, 0.005663265306122448, -0.028438774489795916, -0.009744897959183672, -0.021602039795918366, 
25, 0.47520717833825693, -0.057428570408163265, -0.06954081224489796, -0.08851020306122448, -0.05953061326530611, -0.01774489693877551, -0.01774489693877551, -0.009061224489795919, -0.009071428571428572, -0.016622448979591833, -0.035816324489795916, -0.04758163061224489, -0.04877550918367347, -0.03240816122448979, -0.04354081632653061, -0.03308163265306122, -0.022081632653061223, -0.026275509183673468, 0.03568367346938776, 0.03568367346938776, 0.08514285714285715, 0.19304080918367345, 0.28152040102040815, 0.1871122387755102, 0.06090816224489796, 0.07589795714285714, -0.004377551020408163, -0.004377551020408163, -0.06319387857142857, -0.06340816326530611, -0.08027550510204082, -0.13998979183673468, -0.18884692857142854, -0.18701019285714285, -0.1468979581632653, -0.0763469387755102, -0.024224489795918364, 0.013112244897959183, 0.038183672448979585, 0.046755099999999994, 0.04343877346938775, 0.024193876530612245, 0.06178571224489796, 0.023387754081632652, 0.008918367346938776, -0.0004591836734693877, -0.015224488775510204, -0.015224488775510204, 0.021530612244897957, -0.0005408163265306122, -0.01454081632653061, -0.0010918367346938775, 0.005459183673469387, 0.05313265102040816, 0.026857141836734693, -0.001173469387755102, -0.001173469387755102, -0.021040815306122448, -0.028153062244897956, -0.03170408163265306, -0.005673469387755101, 0.0006326530612244897, -0.02304081530612245, -0.048010203061224485, -0.047275509183673466, -0.05545918469387755, -0.04342857040816326, 0.001173469387755102, -0.015520408163265307, -0.015520408163265307, -0.06893877448979592, 0.020183673469387754, 0.1900714275510204, 0.19388775408163264, 0.0510204081632653, -0.054408160204081624, -0.10029591428571429, -0.10029591428571429, -0.024693877551020406, 0.053683671428571424, 0.06874489591836734, 0.03533673571428571, 0.014224488775510203, 0.025112243877551017, 0.03137755102040816, 0.013714285714285712, -0.006122448979591836, -0.008520408163265306, 0.02078571326530612, 0.044897959183673466, 0.04314285408163265, 0.030275510204081632, 0.0050918367346938775, 0.024499999999999997, 0.03772448775510204, 0.015551020408163266, 0.024224489795918364, 0.024224489795918364, -0.014448979591836735, -0.0066326530612244895, -0.0027653061224489793, -0.006908163265306122, -0.0066326530612244895, 0.001724489795918367, 0.021418366326530613, 0.021693876530612242, 0.021693876530612242, 0.03831632551020408, 0.047265306122448975, 0.04731632653061224, 0.07203060714285714, 0.0693571387755102, 0.07490816122448979, 0.05975509795918367, 0.08874489285714285, 0.0561020387755102, 0.046510204081632645, 0.03909183673469387, 0.0814387744897959, 0.0814387744897959, -0.008918367346938776, -0.07878571122448978, -0.07673469081632651, -0.029448979591836736, -0.050653061224489794, -0.005081632653061224, -0.0552959163265306, -0.0552959163265306, -0.06230612142857142, -0.0546020387755102, -0.07673469081632651, -0.09680611734693877, -0.09298979591836734, -0.1088163193877551, -0.11589795918367345, -0.12070407653061223, -0.10809183163265305, -0.11281632653061223, -0.10574489183673468, -0.0926734663265306, -0.061928569387755095, -0.02768367244897959, -0.013071427551020406, -0.024295917346938777, -0.02625510102040816, -0.010397959183673469, -0.007948979591836734, -0.007948979591836734, -0.01709183571428571, -0.006214285714285714, -0.018030612244897957, 
26, 0.5141141381255717, -0.03230612142857143, -0.028295918367346937, -0.03856122448979592, -0.029663264285714287, -0.02626530714285714, -0.030520406122448974, -0.0074285714285714285, -0.010826530612244898, -0.024806121428571425, -0.03727551020408163, -0.03336734591836735, -0.025867344897959183, -0.0177244887755102, -0.033255101020408157, -0.040928569387755104, -0.02931632551020408, 0.006204081632653061, 0.04093877551020408, 0.07161224387755102, 0.07540815918367347, 0.05224489387755102, 0.03941836734693877, 0.020459183673469387, 0.04077551020408163, 0.13938774897959183, 0.20279591224489793, 0.17323468367346936, 0.16592856530612243, 0.07812244591836734, -0.0900306081632653, -0.1756428581632653, -0.1858469295918367, -0.15733672653061223, -0.022, 0.018561223469387756, 0.015714285714285712, -0.061193874489795914, -0.11237755102040815, -0.11237755102040815, -0.07882652857142856, -0.07882652857142856, -0.06772448775510204, -0.019102039795918367, 0.020530611224489796, 0.08487754897959184, 0.060275507142857135, 0.030938776530612246, 0.0522551, 0.06062244897959183, 0.05341836428571429, 0.00510204081632653, 0.009142857142857142, 0.007897959183673468, -0.008979591836734692, -0.004897959183673469, 0.01403061224489796, 0.04040816326530612, 0.04072448775510204, 0.021020408163265305, 0.010663265306122448, 0.028826530612244893, 0.057846939795918366, 0.06439795918367347, 0.05405101836734693, 0.049163264285714284, 0.048163265306122444, 0.036051021428571424, 0.031122449999999996, 0.03409183469387755, 0.042897958163265304, 0.0689489806122449, 0.10144897857142857, 0.08635714387755102, 0.04787755, -0.04314285408163265, -0.1024897969387755, -0.10115306020408163, -0.12308163265306121, -0.05576530306122448, 0.1255306051020408, 0.1846530612244898, 0.13570407244897958, 0.015785714285714285, -0.18339795714285714, -0.2014795857142857, -0.17178570714285712, -0.06539795510204081, -0.005020408163265305, -0.005020408163265305, -0.08183673367346939, -0.08183673367346939, -0.09391836326530612, -0.08074489795918367, -0.06561224591836734, -0.06788775612244898, -0.09791836428571428, -0.12334693469387753, -0.1246326551020408, -0.07440816428571428, -0.07534693673469386, -0.014377551020408162, -0.008153061224489794, 0.02745918163265306, 0.02487755102040816, 0.04225510102040816, 0.04969387653061224, 0.06357142551020407, 0.06080612244897959, 0.06087755102040816, 0.06639795612244898, 0.08070408061224489, 0.07272449081632654, 0.06808162959183672, 0.05769387755102041, 0.05619387857142857, 0.05388775612244897, 0.041755099999999996, 0.03309183571428571, 0.02893877551020408, 0.0552959163265306, 0.0642755081632653, 0.08373469081632652, 0.08484693775510203, -0.010387754081632653, -0.07526530306122449, -0.15533673469387754, -0.20820408469387752, -0.2003265275510204, -0.07003061020408163, 0.11790815714285713, 0.17053060408163265, 0.15454080612244897, 0.04674489693877551, -0.058836736734693876, -0.09028571020408163, -0.08336734387755101, -0.04425510204081632, -0.08242857040816326, -0.08242857040816326, -0.1312857132653061, -0.1312857132653061, -0.11749999897959183, -0.08739795612244897, -0.08467346428571428, -0.04570408163265306, -0.027469387755102038, -0.011561224489795918, -0.00927551020408163, -0.029642856122448977, -0.014999999999999998, 
27, 0.45522754729997406, -0.016561223469387754, -0.04047959081632653, -0.02852040918367347, -0.04293877551020408, -0.018755102040816325, -0.018755102040816325, -0.023132652040816323, -0.020377551020408162, 0.008499998979591836, 0.008367345918367346, 0.005948979591836734, 0.019836734693877547, -0.002551020408163265, 0.007295918367346938, 0.03585714183673469, 0.05280612040816326, 0.03552040612244897, 0.013561224489795916, -0.010520407142857142, -0.016295917346938773, -0.007336734693877551, 0.00186734693877551, 0.01473469387755102, 0.010989795918367346, -0.010918367346938775, -0.0024693877551020408, 0.03577551020408163, 0.06433673061224489, 0.07018367244897959, 0.07262244489795917, 0.07424489591836735, 0.1398367295918367, 0.14585713979591836, 0.04105102040816326, -0.025408163265306122, -0.024806121428571425, 0.006806122448979591, 0.002183673469387755, -0.005224489795918367, -0.0008265306122448978, 0.00804081632653061, -0.0066326530612244895, -0.05315306224489795, -0.026622447959183674, -0.010908163265306121, -0.05259183571428571, -0.11002040612244897, -0.1987653, -0.2657244887755102, -0.25278570714285714, -0.029510202040816325, -0.04618367346938775, -0.06899999693877551, -0.012724488775510202, -0.007612244897959183, -0.007612244897959183, 0.04097959183673469, 0.06950000102040815, 0.037, 0.0064285714285714285, -0.002336734693877551, -0.021336733673469388, 0.005948979591836734, -0.018102039795918366, -0.02517346836734694, -0.022663264285714285, -0.009122448979591835, -0.000510204081632653, 0.008683673469387754, -0.008510204081632652, -0.025785714285714283, -0.04996938673469387, -0.05086734591836734, -0.03759183469387755, -0.0029183673469387753, 0.02539795918367347, 0.02836734693877551, -0.004438775510204081, -0.01733673469387755, -0.006959183673469387, 0.04077551020408163, 0.12725510204081633, 0.09772448469387754, 0.02158163163265306, -0.00011224489795918367, -0.006132653061224489, -0.03839795714285714, -0.02274489693877551, -0.002142857142857143, 0.05384693979591836, 0.07754081326530611, 0.0682040806122449, 0.04969387653061224, 0.05708162857142857, 0.017785714285714287, -0.03225510204081632, -0.06007142857142857, -0.10151020102040816, -0.11946938469387755, -0.11270407551020407, -0.05621428367346938, -0.02430612142857143, -0.0028367346938775505, 0.003948979591836734, 0.032020406122448976, 0.032020406122448976, 0.02521428571428571, 0.022663264285714285, 0.015499998979591837, 0.028459183673469383, 0.04516326326530612, 0.05734693673469387, 0.03956122346938775, 0.059816326530612245, 0.03922448775510204, 0.03675510102040817, 0.03629591734693877, 0.05079591734693877, 0.04861224387755102, 0.04608163163265306, 0.03091836734693877, 0.019765306122448978, 0.019693876530612244, 0.017326530612244897, 0.037306121428571426, 0.06044898061224489, 0.06749999795918367, 0.06826530306122448, 0.0893061193877551, 0.07812244591836734, -0.012499998979591836, 0.01941836632653061, -0.029489795918367343, -0.08089796020408163, -0.008326530612244898, 0.03527551020408163, 0.08299999693877551, 0.07507142346938775, 0.09598979489795918, 0.06440815918367347, 0.0592551, 0.00997959081632653, 0.001520408163265306, 0.006285714285714285, -0.02212244795918367, -0.055857142857142855, -0.09101020408163264, -0.10311223979591837, -0.07764285306122448, -0.06105101836734693, 
28, 0.5487896140115834, -0.07738775102040815, 0.08231632551020408, 0.21193876530612243, 0.21492855918367346, 0.11868367346938775, 0.05543877244897959, 0.004989795918367347, -0.005551020408163265, -0.02682652959183673, -0.04341836530612245, -0.05990816020408163, -0.0846020357142857, -0.08212244591836734, -0.020765305102040815, -0.027132652040816323, -0.013642857142857144, 0.0026326530612244894, 0.0026326530612244894, 0.010224489795918366, 0.008948978571428571, -0.01844897857142857, -0.048510204081632646, -0.0510204081632653, -0.03504081632653061, -0.018602040816326527, -0.010765306122448979, -0.01830612244897959, -0.02547959081632653, -0.016887755102040818, 0.012979590816326532, 0.03577551020408163, 0.06180611836734694, 0.07823469081632653, 0.07651020102040816, 0.06263265204081632, 0.1071122469387755, 0.22487754693877549, 0.1984693806122449, 0.10810203673469386, 0.023397958163265304, -0.01604081530612245, -0.024826529591836732, -0.020306122448979592, -0.012214285714285714, -0.00946938775510204, -0.07305102040816326, -0.12462245, -0.17057142653061225, -0.18081632244897958, -0.1659489775510204, -0.06511224183673468, -0.02397959183673469, 0.019632652040816323, 0.04171428367346938, 0.05514285408163264, 0.05999999999999999, 0.07203060714285714, 0.06951020102040815, 0.044632651020408164, 0.061469387755102044, 0.025989796938775504, 0.02518367244897959, 0.0075816326530612245, -0.04028571224489796, -0.029632653061224486, -0.04938775510204081, -0.015397958163265306, -0.015397958163265306, 0.015591835714285712, 0.03611224387755102, 0.039357141836734694, 0.039948979591836735, 0.0631530612244898, 0.08445917959183673, 0.07327551122448979, 0.057153057142857136, 0.04218367244897959, 0.0385510193877551, 0.062112242857142855, 0.08008163163265306, 0.0748469387755102, 0.054999996938775504, 0.05316326224489795, 0.08912244591836735, 0.07604081428571428, -0.04039795714285714, -0.19690815306122447, -0.13498978979591836, -0.044295918367346934, 0.04469387653061224, 0.0881632612244898, 0.0988979551020408, 0.019755102040816326, -0.06562244489795918, -0.09851020204081633, -0.07890816224489795, -0.03616326326530612, 0.012673468367346938, 0.011591836734693878, 0.0019183673469387755, -0.11274489795918366, -0.15252040306122447, -0.12930612142857142, -0.08557142653061224, -0.02258163163265306, -0.02801020204081632, -0.013806122448979592, -0.029204080612244897, -0.034499998979591835, -0.025265305102040815, -0.004663265306122448, -0.002683673469387755, 0.003724489795918367, -0.03074489693877551, -0.02088775408163265, -0.03138775408163265, -0.01577550918367347, -0.01577550918367347, 0.00639795918367347, 0.026571428571428572, 0.030612242857142855, 0.05337754693877551, 0.07493877244897959, 0.07258162857142857, 0.07187755102040816, 0.06558162857142856, 0.06068367142857142, 0.058979592857142854, 0.05991836632653061, 0.04786734693877551, 0.0444285693877551, 0.09466326326530611, 0.1145, 0.11461223877551019, 0.056418363265306117, -0.08875509897959183, -0.10567346428571427, -0.0880816275510204, -0.035806121428571425, 0.08617347040816326, 0.10951020306122448, 0.05942856734693878, -0.02348979489795918, -0.07492856734693877, -0.10741835918367346, -0.0974795887755102, -0.09882652653061225, -0.11376530510204082, -0.11188774693877551, -0.10096938673469387, 
29, 0.4944137629098352, -0.13663265204081632, -0.07856122040816327, -0.009071428571428572, 0.04005101836734694, 0.05379591632653061, 0.02949999897959183, 0.014336733673469385, 0.019561224489795918, 0.025275509183673467, 0.04247959183673469, 0.03764285714285714, 0.016999998979591837, -0.0095, -0.032765306122448976, -0.058091836734693876, -0.04826530510204081, -0.02547959081632653, 0.01340816326530612, -0.015724489795918364, -0.012785713265306121, -0.022224488775510202, 0.00260204081632653, -0.010979591836734694, -0.01923469387755102, -0.02794897959183673, 0.011846938775510202, 0.059163266326530614, 0.037051019387755096, -0.025459182653061223, -0.03343877448979592, -0.01890816224489796, 0.02618367244897959, 0.06684693775510203, 0.044969386734693875, 0.020765305102040815, 0.020999999999999998, 0.06134693673469387, 0.07358162959183673, 0.10814286020408162, 0.12049999795918366, 0.10753061122448977, 0.06637755102040815, 0.02952040714285714, 0.09187754897959183, 0.10716326428571428, 0.10041836530612244, -0.0021020408163265306, -0.0584183663265306, -0.06925509897959184, -0.07302040306122448, -0.014591835714285713, -0.06436734795918367, -0.10084693571428571, -0.11328570714285714, -0.09692856836734694, -0.09241836428571427, -0.09573469387755101, -0.10705101224489795, -0.07776530408163265, -0.03409183469387755, -0.010836733673469386, -0.009959183673469388, -0.02131632551020408, -0.02212244795918367, -0.004816326530612244, -0.007785714285714286, -0.0017857142857142857, -0.041897957142857135, 0.012234693877551021, -0.020285714285714285, -0.03229591632653061, -0.07874489489795918, -0.019102039795918367, -0.011826529591836733, 0.005122448979591836, -0.014214285714285714, -0.03397959183673469, -0.013836734693877549, 0.014806122448979591, -0.004959183673469387, -0.02939795918367347, -0.039285713265306124, -0.03875510102040816, -0.010061224489795916, 0.008438775510204081, 0.000510204081632653, -0.03439795918367347, -0.043479590816326526, -0.03691836632653061, 0.013836734693877549, 0.047673467346938773, 0.12027550714285713, 0.16677551122448978, 0.11367346530612243, 0.2211734714285714, 0.13168366632653059, -0.09342857142857142, -0.2208673469387755, -0.16418367040816326, -0.046122447959183674, -0.09776530204081632, -0.10040816020408162, -0.08982652959183673, -0.06518367040816327, -0.04673469081632652, -0.015275510204081631, -0.009418367346938775, -0.00639795918367347, -0.009316326530612245, -0.0021224489795918363, -0.007265306122448979, -0.010683673469387754, -0.010326530612244898, 0.018561223469387756, 0.01696938775510204, 0.003948979591836734, 0.014510203061224488, 0.0335306112244898, 0.004275510204081632, 0.03140816224489796, 0.03059183469387755, 0.07779591530612245, 0.03347959183673469, 0.07421428469387754, 0.06294897653061224, 0.058836736734693876, 0.06024489591836735, 0.07271428469387754, 0.07559183265306123, 0.07056122551020408, 0.06467346632653061, 0.05556122346938776, 0.05070408061224489, 0.06463264897959183, 0.06870407857142856, 0.09589795510204081, 0.14452040204081631, 0.1047448969387755, 0.12970407448979593, 0.1150612193877551, 0.1117959193877551, 0.10466326224489796, 0.034734691836734694, 0.05073469183673469, -0.0943265275510204, 0.004163265306122449, 0.016469386734693874, 2.0408163265306123e-05, -0.058142853061224485, -0.07334693979591837, 
30, 0.6430151442402045, -0.09368367346938775, -0.11565305714285713, -0.1859183581632653, -0.24269386224489795, -0.30310202653061225, -0.3171836602040816, -0.15679591734693876, 0.09098979285714286, 0.2537346857142857, 0.17820408163265306, 0.0884285693877551, 0.07771428163265305, 0.09366326224489796, 0.0857551, -0.01133673469387755, -0.05331632448979591, -0.07781632653061224, -0.09223469081632653, -0.10543876734693876, -0.11365305408163266, -0.08318367040816325, -0.03642857040816326, -0.00024489795918367346, 0.012428571428571428, 0.02126530612244898, 0.012112244897959182, -0.002051020408163265, -0.014183673469387755, -0.007224489795918367, 0.004642857142857142, 0.013214285714285713, 0.004153061224489795, -0.008785714285714284, -0.028765305102040815, -0.03302040714285714, -0.008795918367346937, 0.03171428469387755, 0.05487755204081632, 0.03258163265306122, 0.01908163163265306, 0.05215306020408162, 0.09987755102040816, 0.2519285683673469, 0.30787754999999994, 0.1975918306122449, 0.014999999999999998, -0.09526530102040816, -0.13033673469387755, -0.14702040306122446, -0.1236122357142857, 0.0522244887755102, 0.09781632448979591, 0.052142855102040815, -0.06573469081632652, -0.14164284795918367, -0.10254081428571428, -0.0221734693877551, 0.033265307142857144, 0.013622447959183675, 0.0051734693877551014, 0.08720407653061224, 0.1496530551020408, 0.10807143163265305, 0.0682550969387755, 0.10104081428571428, 0.06174489591836734, 0.03771428571428571, 0.001530612244897959, -0.03197959183673469, -0.022091836734693875, -0.011112244897959183, -0.0003877551020408163, -0.0005612244897959183, -0.005795918367346939, 0.024112243877551016, 0.037234692857142856, 0.0331020387755102, 0.05001020408163265, 0.06859183265306122, 0.08218366836734693, 0.09020408163265306, 0.10245918061224489, 0.07859183163265306, 0.05678571020408163, 0.04466326530612244, 0.05473468979591836, 0.06559183367346938, 0.0783163244897959, 0.10004081326530612, 0.0988877551020408, 0.06331632346938776, -0.061010201020408154, -0.2529693867346938, -0.26965304285714287, -0.15990815612244896, 0.033244897959183665, 0.1670612244897959, 0.2220816275510204, 0.10767346734693878, -0.06175510102040816, -0.11206122040816327, -0.0876734693877551, -0.16314285102040815, -0.18073468775510204, -0.14488774897959183, -0.16031632653061223, -0.18988774795918364, -0.1678367295918367, -0.13077551020408162, -0.07391836530612245, 0.0008877551020408162, 0.03796938775510204, 0.034897957142857136, -0.012653061224489795, -0.013193877551020408, -0.008459183673469386, 0.0018061224489795919, 0.015112244897959183, 0.017602040816326527, 0.02187755, 0.035418366326530615, 0.032602040816326526, 0.04106122346938775, 0.05246938469387754, 0.08404081530612244, 0.09745918367346938, 0.10047958775510203, 0.10498979897959182, 0.1075204051020408, 0.08309183673469388, 0.0627448969387755, 0.04609183673469387, 0.028969386734693875, 0.030877551020408157, 0.06062244897959183, 0.08659183367346938, 0.0970612193877551, 0.09755101734693877, 0.1191734663265306, 0.14414284897959181, 0.08506122244897958, -0.0786428551020408, -0.15247959285714283, -0.257122443877551, -0.08509183367346938, -0.011244897959183674, 0.09292856734693877, 0.07159183265306122, -0.033816324489795914, -0.08485713775510204, 
31, 0.5936368087488558, -0.059959182653061216, -0.04352040714285714, -0.10303060612244896, -0.19354080714285712, -0.19841836428571427, -0.14426530612244898, -0.00017346938775510202, 0.04796938673469388, 0.027551018367346934, 0.01807142857142857, 0.006663265306122448, 0.029408162244897958, 0.05928571122448979, 0.027326530612244895, -0.03784693979591836, -0.058826530612244896, -0.030938776530612246, -0.0036632653061224488, -0.007448979591836734, -0.02794897959183673, -0.01654081632653061, 0.007214285714285714, 0.01547959081632653, 0.029183671428571426, 0.02440816326530612, 0.0141734693877551, -0.006693877551020408, -0.02187755, -0.000846938775510204, -0.0069387755102040816, -0.010857142857142855, -0.02581632551020408, -0.02744897857142857, -0.009183673469387754, 0.009244897959183674, 0.020530611224489796, 0.009959183673469388, -0.015530612244897959, -0.023357142857142854, 0.005071428571428571, 0.028724487755102036, 0.07114285714285715, 0.10377550612244897, 0.12118367551020408, 0.1606020387755102, 0.14561223775510204, 0.14561223775510204, 0.07849999795918366, 0.07480612244897958, 0.027561224489795918, -0.18172448979591835, -0.19369386938775507, -0.06043877551020408, 0.03719387653061224, 0.04783673265306122, 0.028591836734693878, -0.029510202040816325, -0.0724693887755102, -0.07528571428571428, -0.1130816275510204, -0.11417346326530611, -0.09062244591836734, -0.0756020387755102, -0.07151020408163264, -0.045561224489795916, -0.027102040816326528, -0.028999997959183673, -0.010163264285714286, -0.005010204081632653, -0.002183673469387755, -0.020673469387755102, 0.0007959183673469387, 0.0074693867346938775, -0.02704081530612245, -0.03025510204081632, -0.05668367040816326, -0.06573469081632652, -0.04666326326530612, -0.05041836428571428, -0.0210510193877551, -0.013122448979591835, -0.016387754081632653, -0.021938774489795917, -0.03579591632653061, -0.04771428469387755, -0.043653061224489795, -0.012244897959183673, -0.0003673469387755102, 0.007091836734693878, 0.00560204081632653, -0.00984693775510204, -0.05378571122448979, -0.07234693775510204, -0.012520408163265306, 0.09519387244897959, 0.2710612214285714, 0.2710612214285714, 0.21496938163265303, 0.021367346938775508, -0.22182651938775508, -0.10787754591836735, -0.11181631836734693, -0.08090816020408163, -0.10084693571428571, -0.09734693877551019, -0.10857142959183673, -0.09235714183673469, -0.08149999795918367, -0.05892857040816326, -0.031142855102040814, -0.011989795918367345, -0.00966326530612245, -0.018755102040816325, -0.005755102040816326, -0.004030612244897959, 0.00893877551020408, 0.015928570408163263, 0.01441836632653061, 0.00870408163265306, 0.0007755102040816326, 0.02163265306122449, 0.04457142857142857, 0.03110204081632653, 0.05374489387755101, 0.026591836734693876, 0.053540815306122445, 0.040173469387755095, 0.05145918367346938, 0.06504081326530613, 0.060724488775510205, 0.07412244489795917, 0.06639795612244898, 0.07018367244897959, 0.0774999969387755, 0.06752040918367347, 0.08995917959183672, 0.08173469387755102, 0.09837755102040815, 0.11951019591836734, 0.13557142142857143, 0.14876529897959181, 0.16180611428571426, 0.15713264795918366, 0.09734693877551019, -0.022275510204081632, -0.13345917857142856, -0.13345917857142856, -0.10156122346938776, -0.04937754897959183, -0.03223469387755102, 
32, 0.6052030218783032, -0.020499998979591837, -0.07972449081632653, -0.05338775306122449, -0.06239795612244897, -0.12172448367346937, -0.18330611734693877, -0.17786733979591837, -0.13153060408163264, -0.0790816306122449, -0.014755101020408163, 0.029265306122448976, 0.03278571428571428, -0.0077346938775510205, -0.015306121428571427, -0.01954081530612245, -0.0014489795918367348, 0.01808163163265306, -0.0029591836734693877, -0.06359183673469387, -0.058479588775510204, -0.07804081122448979, -0.03192857244897959, 0.014071427551020407, -0.01510204081632653, -0.003928571428571428, -0.026295918367346936, -0.01040816326530612, 0.009265305102040815, 0.007061224489795918, 0.0006632653061224489, -0.0004999999999999999, 0.017255102040816324, 0.0032040816326530607, 0.00923469387755102, 0.00943877551020408, 0.004397959183673469, 0.006561224489795917, -0.0035204081632653063, -0.011499999999999998, 0.006438775510204081, 0.014724489795918368, 0.011734692857142856, 0.017571427551020407, 0.06268367448979592, 0.1414183693877551, 0.17051020408163264, 0.10227551224489796, 0.03461224387755102, 0.0029693877551020408, -0.006500000000000001, -0.3221122346938775, -0.254734681632653, 0.09091836428571427, 0.21750000102040815, 0.14187754387755103, 0.02381632551020408, -0.03555102040816326, -0.015816326530612244, 0.033908161224489794, 0.08898979591836734, 0.10779591224489794, 0.08475509795918366, 0.06998979285714285, 0.025193876530612246, 0.00423469387755102, 0.006112244897959184, -0.010377551020408162, 0.013775509183673467, 0.032693877551020406, -0.01660204081632653, 0.00883673469387755, -0.013785713265306122, -0.023857141836734694, -0.008693877551020407, -0.020265305102040814, -0.018051020408163265, 0.0064591836734693864, 0.013448979591836734, 0.015612244897959182, 0.016418367346938773, 0.006183673469387755, 0.00986734693877551, 0.026530611224489794, 0.04627551020408163, 0.06526530408163264, 0.06915305918367347, 0.06524489897959183, 0.06008163367346939, 0.04268367346938775, 0.041755099999999996, 0.04039795714285714, 0.05034693673469388, 0.04674489693877551, 0.025938773469387753, -0.02663265408163265, -0.0811020387755102, -0.017857142857142856, 0.0681428581632653, 0.12179591224489794, 0.07581632346938774, -0.06341836326530612, -0.03423469387755102, -0.05727550816326531, -0.08388775306122448, -0.1071122469387755, -0.1528367336734694, -0.15964285408163265, -0.14832652346938774, -0.13459183775510203, -0.12347958571428572, -0.14381632551020407, -0.10572449285714286, -0.06948979489795917, -0.04077551020408163, -0.030704079591836735, -0.030408161224489794, -0.04237754897959183, -0.028551020408163263, -0.01120408163265306, 0.007030612244897959, 0.0014285714285714286, 0.03156122551020408, -0.0016428571428571427, 0.038448979591836734, 0.03707142857142857, 0.011357142857142856, 0.05543877244897959, 0.0638469387755102, 0.05029591632653061, 0.07231632653061223, 0.06290815918367346, 0.06581632448979592, 0.06981632551020407, 0.07509183469387755, 0.07217347040816326, 0.06294897653061224, 0.08131632346938775, 0.07891836836734693, 0.08801019897959184, 0.07703061020408163, 0.07046938571428571, 0.06484693367346939, 0.037795916326530614, -0.050408162244897955, -0.0899999969387755, -0.05448979387755102, 0.002704081632653061, 0.04260203979591836, 0.07419387346938774, 0.07494897857142857, 
33, 0.5211765753730087, 0.020244896938775507, 0.04330612244897959, 0.04094897755102041, -0.009887755102040815, -0.055489795918367335, -0.09020408163265306, -0.0743469357142857, -0.0743469357142857, -0.06028571326530612, -0.06159183367346938, -0.06187755204081632, -0.08402040408163265, -0.10738775408163265, -0.08132652959183673, -0.039020406122448975, 0.04715306122448979, 0.05677551020408163, 0.06130612040816326, 0.06424489693877551, 0.05315306224489795, 0.03897959183673469, -0.006081632653061224, -0.029979591836734692, -0.05278571530612245, -0.04336734489795918, -0.05283673163265306, -0.05505102040816326, -0.023102039795918364, -0.015091836734693876, 0.00496938775510204, 0.015673468367346937, 0.010775510204081632, -0.012846938775510205, -0.030704079591836735, -0.02430612142857143, -0.00019387755102040816, 0.03411224285714286, 0.019102039795918367, -0.009765306122448978, -0.023632653061224487, -0.0074285714285714285, 0.01079591836734694, 0.00496938775510204, -0.00373469387755102, -0.015377551020408163, -0.03105101836734694, 0.0011020408163265306, 0.06436734795918367, 0.08776530306122449, 0.10285714489795919, -0.026306120408163262, -0.06584693571428571, -0.05957142448979592, -0.04544897959183673, -0.02364285612244898, -0.035653059183673466, -0.0946530581632653, -0.0946530581632653, -0.08995917959183672, -0.08945918163265305, -0.08729591632653061, -0.08691836326530612, -0.035081630612244896, -0.039765306122448975, -0.05910203775510204, -0.07516326326530612, -0.09215305612244896, -0.08244897653061224, -0.06715306224489795, -0.07004081632653061, -0.05637755204081633, -0.029908163265306122, -0.007030612244897959, 0.026755102040816322, 0.006816326530612244, -0.004459183673469388, -0.027255103061224487, -0.042142856122448974, 0.002948979591836734, 0.017867346938775508, 0.024918366326530612, -0.0004285714285714285, 0.004255102040816326, -0.0002857142857142857, -0.011091836734693878, -0.02978571224489796, -0.02975510102040816, -0.0010510204081632653, 0.028387755102040814, 0.025255101020408163, -0.0015612244897959182, -0.01608163265306122, -0.0027653061224489793, 0.009908163265306122, 0.0019081632653061224, 0.01087755, 0.016663264285714286, 0.0005612244897959183, -0.018367345918367344, 0.015224488775510204, 0.03103061326530612, 0.006438775510204081, -0.010193877551020407, -0.016673468367346938, -0.004673469387755102, 0.003030612244897959, -0.009551020408163266, -0.009551020408163266, -0.04533673469387754, -0.0709795887755102, -0.09181632653061224, -0.10105102040816326, -0.09404081428571427, -0.09695917959183672, -0.0947550969387755, -0.07907142448979591, -0.029142858163265305, -0.012122448979591836, -0.021081632653061223, -0.010091836734693877, -0.02390816224489796, -0.006653061224489795, -0.0015918367346938775, 0.006153061224489795, 0.0037448979591836735, -0.010193877551020407, 0.004387755102040816, -0.005765306122448979, 0.0034693877551020408, 0.024887755102040814, 0.029295917346938777, 0.05682652653061224, 0.059704081632653054, 0.06742856938775509, 0.06133673163265306, 0.05888775306122448, 0.05435714285714285, 0.07941836632653061, 0.07775509795918367, 0.08744897857142857, 0.08597959081632651, 0.09697959081632652, 0.08929591428571428, 0.07965305612244898, 0.09575509897959182, 0.11320407244897959, 0.0986020357142857, 0.0794795887755102, 0.06307142755102041, 0.00943877551020408, 
34, 0.4539092663335663, 0.12489795714285715, 0.16386733979591836, 0.21138775102040813, 0.18287754795918365, 0.07847958673469387, 0.037295918367346935, -0.06951020102040815, -0.14025509387755103, -0.1285714275510204, -0.11603061020408162, -0.16234693469387754, -0.2510918408163265, -0.2038265244897959, -0.11232652244897959, 0.04510204081632653, 0.16090816428571428, 0.14952040408163264, 0.08601020204081632, 0.048091834693877546, 0.03676530612244898, 0.0510510193877551, 0.05917346632653061, -0.005010204081632653, -0.07069387653061224, -0.1195714306122449, -0.08299999693877551, -0.03570407959183673, -0.02003061224489796, -0.0408469387755102, -0.049153058163265304, -0.026428571428571426, -0.007775510204081633, 0.0063775510204081625, 0.008846938775510203, 0.014693876530612243, 0.012193877551020407, 0.012193877551020407, 0.004897959183673469, 0.006989795918367347, -0.006183673469387755, -0.023969387755102038, -0.029061223469387755, -0.030785714285714284, -0.020897958163265302, -0.01830612244897959, -0.022428571428571426, 0.0010102040816326531, 0.0010102040816326531, 0.015489794897959182, 0.014510203061224488, 0.08821428469387754, 0.19503060612244896, 0.2889693755102041, 0.09839795714285714, -0.15021428775510204, -0.27145918571428573, -0.1959387744897959, -0.07526530306122449, 0.04826530510204081, 0.12672448673469386, 0.08510203979591836, -0.048010203061224485, -0.010418367346938774, 0.055673469387755095, 0.0954285693877551, 0.0880816275510204, 0.047510202040816324, 0.030214284693877547, 0.03859183571428571, 0.04003061020408163, 0.04820407959183673, 0.013336733673469386, -0.010183673469387755, -0.03289795918367347, 0.003530612244897959, -0.029653061224489796, -0.022102040816326527, -0.04086734693877551, -0.03711224489795918, -0.0007857142857142856, 0.03257142653061224, 0.046846936734693874, 0.025224489795918365, 0.021918367346938774, 0.03719387653061224, 0.050234690816326526, 0.050234690816326526, 0.04963265102040816, 0.027836734693877548, 0.01808163163265306, 0.023183673469387756, 0.028795916326530613, 0.03483673469387755, 0.04093877551020408, 0.051122447959183664, 0.05083673469387755, 0.05976530408163265, 0.05976530408163265, 0.05687754999999999, 0.057846939795918366, -0.01046938775510204, -0.052642859183673466, -0.03643877346938775, 0.08213265204081632, 0.024561223469387754, 0.03642857040816326, -0.04502040714285714, -0.07381632653061225, -0.08374489693877551, -0.05961224183673469, -0.07868367142857143, -0.13218367551020407, -0.1419081612244898, -0.12743876938775509, -0.0892448969387755, -0.07401019897959184, -0.036969385714285714, -0.029867345918367347, -0.018479591836734692, -0.014989795918367346, -0.02989795714285714, -0.04820407959183673, -0.05122448673469387, -0.022469386734693876, -0.026061224489795917, -0.001704081632653061, -0.03832652857142857, -0.06171428469387754, -0.026755102040816322, -0.007071428571428571, 0.002551020408163265, 0.0037857142857142855, 0.02857142857142857, 0.03989795918367347, 0.04968367346938775, 0.055714285714285716, 0.055714285714285716, 0.06772448775510204, 0.06390816122448979, 0.06458163265306122, 0.06732652959183673, 0.07443877551020409, 0.07215305816326531, 0.06646938469387755, 0.050816326530612244, 0.051642857142857136, 0.06540816020408162, 0.06540816020408162, 0.07046938571428571, 0.07656122346938775, 
