time[s],speed[m/s],acc_x(0)[G],acc_x(1)[G],acc_x(2)[G],acc_x(3)[G],acc_x(4)[G],acc_x(5)[G],acc_x(6)[G],acc_x(7)[G],acc_x(8)[G],acc_x(9)[G],acc_x(10)[G],acc_x(11)[G],acc_x(12)[G],acc_x(13)[G],acc_x(14)[G],acc_x(15)[G],acc_x(16)[G],acc_x(17)[G],acc_x(18)[G],acc_x(19)[G],acc_x(20)[G],acc_x(21)[G],acc_x(22)[G],acc_x(23)[G],acc_x(24)[G],acc_x(25)[G],acc_x(26)[G],acc_x(27)[G],acc_x(28)[G],acc_x(29)[G],acc_x(30)[G],acc_x(31)[G],acc_x(32)[G],acc_x(33)[G],acc_x(34)[G],acc_x(35)[G],acc_x(36)[G],acc_x(37)[G],acc_x(38)[G],acc_x(39)[G],acc_x(40)[G],acc_x(41)[G],acc_x(42)[G],acc_x(43)[G],acc_x(44)[G],acc_x(45)[G],acc_x(46)[G],acc_x(47)[G],acc_x(48)[G],acc_x(49)[G],acc_y(0)[G],acc_y(1)[G],acc_y(2)[G],acc_y(3)[G],acc_y(4)[G],acc_y(5)[G],acc_y(6)[G],acc_y(7)[G],acc_y(8)[G],acc_y(9)[G],acc_y(10)[G],acc_y(11)[G],acc_y(12)[G],acc_y(13)[G],acc_y(14)[G],acc_y(15)[G],acc_y(16)[G],acc_y(17)[G],acc_y(18)[G],acc_y(19)[G],acc_y(20)[G],acc_y(21)[G],acc_y(22)[G],acc_y(23)[G],acc_y(24)[G],acc_y(25)[G],acc_y(26)[G],acc_y(27)[G],acc_y(28)[G],acc_y(29)[G],acc_y(30)[G],acc_y(31)[G],acc_y(32)[G],acc_y(33)[G],acc_y(34)[G],acc_y(35)[G],acc_y(36)[G],acc_y(37)[G],acc_y(38)[G],acc_y(39)[G],acc_y(40)[G],acc_y(41)[G],acc_y(42)[G],acc_y(43)[G],acc_y(44)[G],acc_y(45)[G],acc_y(46)[G],acc_y(47)[G],acc_y(48)[G],acc_y(49)[G],acc_z(0)[G],acc_z(1)[G],acc_z(2)[G],acc_z(3)[G],acc_z(4)[G],acc_z(5)[G],acc_z(6)[G],acc_z(7)[G],acc_z(8)[G],acc_z(9)[G],acc_z(10)[G],acc_z(11)[G],acc_z(12)[G],acc_z(13)[G],acc_z(14)[G],acc_z(15)[G],acc_z(16)[G],acc_z(17)[G],acc_z(18)[G],acc_z(19)[G],acc_z(20)[G],acc_z(21)[G],acc_z(22)[G],acc_z(23)[G],acc_z(24)[G],acc_z(25)[G],acc_z(26)[G],acc_z(27)[G],acc_z(28)[G],acc_z(29)[G],acc_z(30)[G],acc_z(31)[G],acc_z(32)[G],acc_z(33)[G],acc_z(34)[G],acc_z(35)[G],acc_z(36)[G],acc_z(37)[G],acc_z(38)[G],acc_z(39)[G],acc_z(40)[G],acc_z(41)[G],acc_z(42)[G],acc_z(43)[G],acc_z(44)[G],acc_z(45)[G],acc_z(46)[G],acc_z(47)[G],acc_z(48)[G],acc_z(49)[G],
0, 0.34529961506071133, 0.9879746724489796, 0.9879746724489796, 0.991883569387755, 0.9948152428571428, 0.991883569387755, 0.9899291214285714, 0.991883569387755, 0.991883569387755, 0.9899291214285714, 0.991883569387755, 0.9909063459183672, 0.9928607938775509, 0.991883569387755, 0.9928607938775509, 0.9948152428571428, 0.9948152428571428, 0.9977469153061225, 0.9977469153061225, 0.9997013632653061, 0.9967696908163265, 0.9928607938775509, 0.9850429999999999, 0.9801568785714285, 0.9821113275510203, 0.9840657755102039, 0.9850429999999999, 0.9899291214285714, 0.9879746724489796, 0.9899291214285714, 0.9957924663265305, 0.9967696908163265, 0.9938380183673468, 0.9938380183673468, 1.000678587755102, 0.9987241397959183, 0.9957924663265305, 0.9948152428571428, 0.9948152428571428, 0.991883569387755, 0.991883569387755, 0.9879746724489796, 0.9879746724489796, 0.9879746724489796, 0.9948152428571428, 0.9948152428571428, 0.9948152428571428, 0.9850429999999999, 0.9850429999999999, 0.9889518969387755, 0.9889518969387755, -0.00195445, -0.00195445, -0.00195445, 0.0029316755102040816, 0.0009772255102040816, -0.00195445, -0.004886125510204081, -0.004886125510204081, 0.0, -0.00195445, -0.004886125510204081, 0.0, 0.0, -0.00195445, 0.00195445, 0.00195445, 0.005863351020408163, 0.008795026530612244, 0.010749477551020407, 0.007817801020408162, 0.007817801020408162, -0.0009772255102040816, -0.009772251020408162, -0.01563560306122449, -0.016612828571428567, -0.01759005306122449, -0.01759005306122449, -0.008795026530612244, 0.003908901020408162, 0.004886125510204081, 0.007817801020408162, 0.003908901020408162, 0.003908901020408162, 0.0, 0.0, -0.0029316755102040816, 0.003908901020408162, 0.003908901020408162, 0.00195445, 0.00195445, 0.004886125510204081, 0.0029316755102040816, 0.0029316755102040816, -0.0009772255102040816, -0.0009772255102040816, -0.005863351020408163, -0.003908901020408162, -0.003908901020408162, -0.005863351020408163, -0.005863351020408163, -0.050815709183673466, -0.050815709183673466, -0.052770157142857134, -0.05179293265306122, -0.04983848469387755, -0.04788403265306122, -0.05667906020408162, -0.05667906020408162, -0.05570183571428571, -0.052770157142857134, -0.050815709183673466, -0.04983848469387755, -0.04886126020408163, -0.050815709183673466, -0.050815709183673466, -0.050815709183673466, -0.042997909183673466, -0.04495235714285714, -0.03908900612244898, -0.04592958469387755, -0.05179293265306122, -0.05765628469387755, -0.05961073877551021, -0.061565187755102044, -0.06840576326530612, -0.0635196357142857, -0.05961073877551021, -0.052770157142857134, -0.05374738775510204, -0.05179293265306122, -0.05374738775510204, -0.05863350918367346, -0.05863350918367346, -0.05179293265306122, -0.046906809183673466, -0.04886126020408163, -0.042997909183673466, -0.042997909183673466, -0.04592958469387755, -0.04592958469387755, -0.04788403265306122, -0.046906809183673466, -0.046906809183673466, -0.04397513265306122, -0.04397513265306122, -0.04788403265306122, -0.05179293265306122, -0.05179293265306122, -0.046906809183673466, -0.046906809183673466, 
1, 0.16638048479623513, 0.9889518969387755, 0.9967696908163265, 0.9977469153061225, 0.9977469153061225, 0.9879746724489796, 0.9879746724489796, 0.9840657755102039, 0.9889518969387755, 0.9889518969387755, 0.9879746724489796, 0.9879746724489796, 0.9938380183673468, 0.991883569387755, 0.9869974489795917, 0.9830885520408164, 0.9938380183673468, 0.9938380183673468, 0.9967696908163265, 0.9967696908163265, 0.9967696908163265, 0.9928607938775509, 0.9928607938775509, 0.9938380183673468, 0.9869974489795917, 0.9869974489795917, 0.9801568785714285, 0.9811341030612244, 0.9889518969387755, 0.9909063459183672, 0.9869974489795917, 0.9840657755102039, 0.9860202244897959, 0.991883569387755, 0.9899291214285714, 0.9899291214285714, 0.9928607938775509, 0.991883569387755, 0.991883569387755, 0.9869974489795917, 0.9850429999999999, 0.9860202244897959, 0.9850429999999999, 0.9840657755102039, 0.9830885520408164, 0.9899291214285714, 0.9928607938775509, 0.9967696908163265, 0.9967696908163265, 0.9938380183673468, 0.991883569387755, -0.005863351020408163, -0.008795026530612244, -0.0029316755102040816, -0.0029316755102040816, -0.009772251020408162, -0.009772251020408162, -0.01368115306122449, -0.010749477551020407, -0.010749477551020407, -0.008795026530612244, -0.01563560306122449, -0.0244306306122449, -0.021498954081632653, -0.021498954081632653, -0.01954450306122449, -0.016612828571428567, -0.016612828571428567, -0.01856727857142857, -0.02052172857142857, -0.02052172857142857, -0.02247617857142857, -0.02247617857142857, -0.02247617857142857, -0.02736230612244898, -0.02736230612244898, -0.0244306306122449, -0.025407854081632653, -0.02736230612244898, -0.0244306306122449, -0.021498954081632653, -0.021498954081632653, -0.023453404081632653, -0.0244306306122449, -0.021498954081632653, -0.025407854081632653, -0.025407854081632653, -0.0244306306122449, -0.025407854081632653, -0.026385078571428567, -0.02736230612244898, -0.0244306306122449, -0.026385078571428567, -0.02736230612244898, -0.0283395306122449, -0.025407854081632653, -0.0283395306122449, -0.02736230612244898, -0.02736230612244898, -0.0283395306122449, -0.03127120612244898, -0.046906809183673466, -0.04788403265306122, -0.04788403265306122, -0.04788403265306122, -0.05570183571428571, -0.05570183571428571, -0.05765628469387755, -0.05863350918367346, -0.05863350918367346, -0.05472461224489796, -0.05765628469387755, -0.06840576326530612, -0.07426911428571428, -0.07329189081632653, -0.0703602112244898, -0.0703602112244898, -0.0703602112244898, -0.06938298775510203, -0.07915524183673468, -0.07915524183673468, -0.07915524183673468, -0.07915524183673468, -0.08404136326530612, -0.09088194489795919, -0.09088194489795919, -0.08795026632653061, -0.08599581734693877, -0.0830641387755102, -0.0869730418367347, -0.08404136326530612, -0.0830641387755102, -0.07817801122448978, -0.0830641387755102, -0.0830641387755102, -0.08501859387755101, -0.0830641387755102, -0.08501859387755101, -0.0918591693877551, -0.08990471428571428, -0.09674529081632652, -0.09674529081632652, -0.09576806632653061, -0.08990471428571428, -0.08892749081632653, -0.0830641387755102, -0.08208691428571428, -0.08599581734693877, -0.08990471428571428, -0.0918591693877551, -0.09088194489795919, 
2, 0.34016532208360845, 0.9869974489795917, 0.9860202244897959, 0.9850429999999999, 0.9850429999999999, 0.9821113275510203, 0.9850429999999999, 0.9850429999999999, 0.9850429999999999, 0.9830885520408164, 0.9821113275510203, 0.9879746724489796, 0.9977469153061225, 0.9957924663265305, 0.9957924663265305, 0.9957924663265305, 0.9957924663265305, 0.9928607938775509, 0.9899291214285714, 0.991883569387755, 0.9948152428571428, 0.9938380183673468, 0.9889518969387755, 0.9909063459183672, 0.9909063459183672, 0.9948152428571428, 0.991883569387755, 0.9869974489795917, 0.9879746724489796, 0.9879746724489796, 0.9957924663265305, 0.9957924663265305, 0.9928607938775509, 0.9928607938775509, 0.9928607938775509, 0.9928607938775509, 0.9899291214285714, 0.9889518969387755, 0.9889518969387755, 0.9928607938775509, 0.9928607938775509, 0.991883569387755, 0.9889518969387755, 0.9889518969387755, 0.991883569387755, 0.991883569387755, 0.9928607938775509, 0.9948152428571428, 0.9957924663265305, 1.0065419336734693, 1.0065419336734693, -0.026385078571428567, -0.01954450306122449, -0.025407854081632653, -0.025407854081632653, -0.02736230612244898, -0.026385078571428567, -0.0283395306122449, -0.0283395306122449, -0.029316754081632652, -0.02736230612244898, -0.02247617857142857, -0.021498954081632653, -0.01954450306122449, -0.023453404081632653, -0.029316754081632652, -0.025407854081632653, -0.021498954081632653, -0.021498954081632653, -0.0244306306122449, -0.0244306306122449, -0.023453404081632653, -0.021498954081632653, -0.021498954081632653, -0.021498954081632653, -0.02247617857142857, -0.025407854081632653, -0.029316754081632652, -0.029316754081632652, -0.025407854081632653, -0.023453404081632653, -0.0244306306122449, -0.02736230612244898, -0.02736230612244898, -0.021498954081632653, -0.021498954081632653, -0.0244306306122449, -0.029316754081632652, -0.029316754081632652, -0.03127120612244898, -0.03127120612244898, -0.029316754081632652, -0.02736230612244898, -0.02736230612244898, -0.02736230612244898, -0.02736230612244898, -0.02247617857142857, -0.0244306306122449, -0.025407854081632653, -0.025407854081632653, -0.025407854081632653, -0.08990471428571428, -0.09088194489795919, -0.09088194489795919, -0.09088194489795919, -0.08501859387755101, -0.08599581734693877, -0.08990471428571428, -0.08990471428571428, -0.08795026632653061, -0.08599581734693877, -0.08110969081632652, -0.07817801122448978, -0.07817801122448978, -0.07329189081632653, -0.06938298775510203, -0.07133743571428572, -0.07133743571428572, -0.07720078775510204, -0.07133743571428572, -0.07329189081632653, -0.07426911428571428, -0.07133743571428572, -0.061565187755102044, -0.061565187755102044, -0.06449686020408163, -0.07133743571428572, -0.07231466632653061, -0.06938298775510203, -0.06547408469387754, -0.06547408469387754, -0.06938298775510203, -0.06058796326530612, -0.06058796326530612, -0.0635196357142857, -0.0635196357142857, -0.06449686020408163, -0.06645131428571427, -0.06645131428571427, -0.05961073877551021, -0.05961073877551021, -0.05570183571428571, -0.06254241224489795, -0.06254241224489795, -0.05570183571428571, -0.05570183571428571, -0.05374738775510204, -0.04495235714285714, -0.042997909183673466, -0.032248430612244895, -0.032248430612244895, 
3, 0.2750302965990356, 1.0299953153061223, 1.0299953153061223, 1.0143597275510203, 0.9889518969387755, 0.9791796551020407, 0.9752707581632653, 0.9782024306122449, 0.9782024306122449, 0.9957924663265305, 0.9957924663265305, 0.9997013632653061, 0.9879746724489796, 0.9909063459183672, 1.009473606122449, 1.015336951020408, 1.0036102602040815, 0.976247981632653, 0.9782024306122449, 0.9782024306122449, 0.9830885520408164, 0.9957924663265305, 0.9928607938775509, 0.9821113275510203, 0.9879746724489796, 0.9957924663265305, 0.9830885520408164, 0.9625668428571429, 0.9635440673469388, 0.9635440673469388, 0.9879746724489796, 0.9879746724489796, 0.9782024306122449, 0.9606123938775509, 0.9606123938775509, 0.9635440673469388, 0.9635440673469388, 0.9400905877551019, 0.9567034969387754, 0.9567034969387754, 1.008496381632653, 1.060289363265306, 1.048562575510204, 1.0163141755102039, 1.0495397999999998, 1.0495397999999998, 1.0749477265306122, 1.0749477265306122, 0.9957924663265305, 0.9312955704081631, 0.9156599826530613, -0.04397513265306122, -0.04397513265306122, -0.04592958469387755, -0.046906809183673466, -0.04592958469387755, -0.04886126020408163, -0.04886126020408163, -0.04495235714285714, -0.04495235714285714, -0.04495235714285714, -0.03811178163265306, -0.03518010612244898, -0.03420288163265306, -0.03908900612244898, -0.036157332653061224, -0.02247617857142857, -0.02247617857142857, -0.03420288163265306, -0.03420288163265306, -0.02736230612244898, -0.01563560306122449, -0.021498954081632653, -0.029316754081632652, -0.0283395306122449, -0.029316754081632652, -0.029316754081632652, -0.03811178163265306, -0.04397513265306122, -0.04397513265306122, -0.050815709183673466, -0.050815709183673466, -0.0674285387755102, -0.052770157142857134, -0.052770157142857134, -0.04495235714285714, -0.04495235714285714, -0.03713455714285714, -0.0009772255102040816, -0.0009772255102040816, -0.0029316755102040816, 0.006840576530612245, 0.025407854081632653, 0.04104345714285714, 0.04983848469387755, 0.04983848469387755, -0.03127120612244898, -0.03127120612244898, -0.04983848469387755, -0.04104345714285714, -0.004886125510204081, -0.050815709183673466, -0.050815709183673466, -0.06449686020408163, -0.06645131428571427, -0.07622356326530612, -0.07720078775510204, -0.07426911428571428, -0.07426911428571428, -0.0674285387755102, -0.0674285387755102, -0.06449686020408163, -0.05472461224489796, -0.061565187755102044, -0.06254241224489795, -0.07426911428571428, -0.09674529081632652, -0.10944922346938774, -0.12019870204081631, -0.12019870204081631, -0.12117592653061224, -0.12410759897959182, -0.12313037551020409, -0.12410759897959182, -0.12313037551020409, -0.13290262959183674, -0.14169764795918366, -0.1387659744897959, -0.12899372040816326, -0.12899372040816326, -0.12997094489795916, -0.12997094489795916, -0.11922147857142856, -0.12801649591836733, -0.12801649591836733, -0.15244712653061224, -0.15244712653061224, -0.15244712653061224, -0.1544015744897959, -0.1544015744897959, -0.1671055020408163, -0.19544504081632652, -0.18176388979591837, -0.12215315102040816, -0.03908900612244898, -0.03908900612244898, -0.09381361734693877, -0.09381361734693877, -0.13778875102040813, -0.12997094489795916, -0.12313037551020409, 
4, 0.3543078858608057, 0.9156599826530613, 0.9195688795918366, 0.8990471704081632, 0.9371589153061223, 0.9371589153061223, 0.9283638969387754, 0.9283638969387754, 0.941067812244898, 0.9586579459183673, 0.9586579459183673, 0.9488856061224489, 0.9498628306122449, 0.968430187755102, 1.000678587755102, 1.0270636418367347, 1.0671299326530612, 1.1365128540816325, 1.1365128540816325, 1.1834197142857141, 1.225440356122449, 1.3163223071428571, 1.4306576397959183, 1.315345082653061, 0.9537718244897959, 0.8609354255102041, 0.9293411214285714, 1.0026330367346938, 1.032926987755102, 1.032926987755102, 0.9830885520408164, 0.9733163091836733, 0.9537718244897959, 0.9459539336734692, 0.8795026857142856, 0.8795026857142856, 0.8150057887755101, 0.784711837755102, 0.7632128561224489, 0.7632128561224489, 0.8247780316326531, 0.8501858612244898, 0.8228235826530611, 0.7993702010204081, 0.7798257163265305, 0.8023018734693877, 0.9293411214285714, 1.075924951020408, 1.1296722836734694, 1.1511713142857143, 1.1286950602040815, 0.007817801020408162, 0.046906809183673466, 0.04886126020408163, 0.050815709183673466, 0.050815709183673466, 0.06058796326530612, 0.06058796326530612, 0.08208691428571428, 0.08501859387755101, 0.08501859387755101, 0.11042644795918366, 0.09283639387755102, 0.10456308979591837, 0.13290262959183674, 0.08208691428571428, 0.04983848469387755, -0.010749477551020407, -0.010749477551020407, 0.04397513265306122, 0.13192540510204082, 0.05472461224489796, -0.15244712653061224, -0.15733325918367347, 0.1485382295918367, 0.2980536826530612, 0.10944922346938774, -0.22964791326530612, -0.0029316755102040816, -0.0029316755102040816, 0.15244712653061224, 0.04788403265306122, -0.10456308979591837, -0.14267487142857144, -0.10163141734693877, -0.10163141734693877, -0.07817801122448978, -0.08208691428571428, -0.11922147857142856, -0.11922147857142856, -0.10847199897959184, -0.08501859387755101, -0.06938298775510203, -0.05961073877551021, -0.07720078775510204, -0.06840576326530612, -0.12508482346938776, -0.12606204795918366, -0.0918591693877551, -0.06058796326530612, -0.023453404081632653, -0.11238089591836734, -0.0869730418367347, -0.05863350918367346, -0.011726702040816326, -0.011726702040816326, 0.01954450306122449, 0.01954450306122449, 0.04886126020408163, 0.04592958469387755, 0.04592958469387755, 0.046906809183673466, 0.029316754081632652, 0.016612828571428567, 0.04397513265306122, -0.003908901020408162, 0.009772251020408162, 0.08110969081632652, 0.08110969081632652, 0.1475610051020408, 0.17687775612244896, 0.029316754081632652, -0.25310131938775504, -0.36255053061224485, -0.12606204795918366, -0.13387985408163267, -0.2941447857142857, -0.4231384826530612, -0.354732737755102, -0.354732737755102, -0.31759819183673466, -0.2433290775510204, -0.20521728367346936, -0.21108062857142854, -0.2022856112244898, -0.2022856112244898, -0.2022856112244898, -0.18469556224489794, -0.1485382295918367, -0.1485382295918367, -0.13192540510204082, -0.11433534489795917, -0.10554031428571427, -0.09674529081632652, -0.10163141734693877, -0.016612828571428567, 0.021498954081632653, -0.011726702040816326, -0.016612828571428567, 0.025407854081632653, 0.07426911428571428, 
5, 0.8771173747756998, 1.1286950602040815, 1.2498709622448978, 1.4873367428571427, 1.30752728877551, 0.9225005520408163, 0.8247780316326531, 0.8433452918367346, 1.2782105622448978, 1.2782105622448978, 1.2234859081632652, 1.161920780612245, 1.140421751020408, 1.1101277989795917, 1.024131969387755, 0.9694074122448979, 0.8922066010204082, 0.832595825510204, 0.7778712683673469, 0.73878225, 0.7417139224489795, 0.7417139224489795, 0.770053425510204, 0.7817801653061224, 0.7808029408163265, 0.7348733530612245, 0.7348733530612245, 0.8306413765306122, 1.0573576908163265, 1.0573576908163265, 1.0827655204081632, 1.0827655204081632, 1.116968369387755, 1.2909144775510204, 1.672032220408163, 1.7609598193877551, 0.9342272428571428, 0.7192377163265306, 0.9850429999999999, 1.1199000418367346, 1.2098047683673467, 1.076902175510204, 0.9948152428571428, 1.0036102602040815, 0.9752707581632653, 0.9508401520408163, 0.868753219387755, 0.7895979591836734, 0.770053425510204, 0.7446455959183673, 0.7446455959183673, -0.023453404081632653, -0.08404136326530612, 0.08208691428571428, 0.315643743877551, -0.1544015744897959, -0.20424005918367344, -0.023453404081632653, 0.23844295612244898, 0.23844295612244898, 0.032248430612244895, -0.02736230612244898, 0.01954450306122449, 0.08013246632653061, 0.04495235714285714, 0.007817801020408162, 0.00195445, 0.05863350918367346, 0.07720078775510204, 0.05374738775510204, 0.03908900612244898, 0.03908900612244898, 0.029316754081632652, 0.03127120612244898, 0.03908900612244898, 0.03518010612244898, 0.03518010612244898, 0.0703602112244898, 0.08599581734693877, 0.08599581734693877, -0.06938298775510203, -0.06938298775510203, -0.046906809183673466, 0.05570183571428571, -0.08110969081632652, -0.6996932326530613, 0.01856727857142857, 0.36743667653061224, 0.12410759897959182, -0.12313037551020409, -0.18176388979591837, 0.025407854081632653, 0.11922147857142856, 0.00195445, -0.0830641387755102, -0.14072042346938773, -0.1504926775510204, -0.08795026632653061, -0.026385078571428567, -0.01759005306122449, -0.01759005306122449, 0.07426911428571428, -0.016612828571428567, -0.30880314999999997, -0.15244712653061224, -0.07915524183673468, -0.17687775612244896, -0.37525447040816323, -0.34984661632653064, -0.34984661632653064, -0.3322565551020408, -0.2941447857142857, -0.26287358673469385, -0.25310131938775504, -0.2218301193877551, -0.21401232653061222, -0.1837183387755102, -0.1837183387755102, -0.17590053265306121, -0.16124215612244897, -0.10260864183673468, -0.10260864183673468, -0.0703602112244898, -0.03908900612244898, -0.01759005306122449, 0.014658377551020408, 0.014658377551020408, 0.10554031428571427, -0.005863351020408163, -0.005863351020408163, 0.09576806632653061, 0.09576806632653061, 0.2433290775510204, 0.2501696469387755, -0.19837671428571427, -0.5013165183673469, -0.3224843132653061, -0.3850267132653061, -0.44366023979591834, -0.5355194153061223, -0.5179293306122449, -0.4661363969387755, -0.3742772459183673, -0.2609191132653061, -0.20326283469387754, -0.19935393775510202, -0.19837671428571427, -0.17492330816326532, -0.16417382959183674, -0.13681152653061224, -0.13681152653061224, 
6, 1.1805493762305936, 0.7338961285714286, 0.7827573897959182, 0.809142443877551, 0.809142443877551, 0.7827573897959182, 0.792529631632653, 0.8707076673469386, 0.9567034969387754, 1.0280408663265306, 1.092537763265306, 1.0524715693877549, 1.0524715693877549, 1.1394445265306121, 1.3270717734693878, 1.2860283561224488, 1.0348814357142857, 0.7895979591836734, 0.9117510857142855, 1.2987322714285712, 1.4384754336734693, 1.4384754336734693, 1.1433534234693878, 1.1433534234693878, 1.0661527091836733, 0.9615896183673468, 0.8071879948979591, 0.8071879948979591, 0.6693992326530611, 0.6693992326530611, 0.6185835234693877, 0.7114199234693878, 0.7114199234693878, 0.7641900806122449, 0.7641900806122449, 0.7593039591836734, 0.8286869285714286, 0.8286869285714286, 1.0133825030612245, 1.0133825030612245, 1.0808110724489794, 1.075924951020408, 1.075924951020408, 1.2371670469387754, 1.2371670469387754, 1.6231710081632653, 1.001655812244898, 1.001655812244898, 0.9997013632653061, 0.9997013632653061, 1.2752788897959182, -0.04104345714285714, -0.004886125510204081, 0.04202068163265306, 0.04202068163265306, 0.05374738775510204, 0.012703927551020408, -0.06254241224489795, -0.14951545408163264, -0.15733325918367347, -0.07915524183673468, 0.016612828571428567, 0.025407854081632653, -0.0703602112244898, -0.033225657142857135, 0.4671136214285714, 0.3332337795918367, -0.03518010612244898, -0.25896466530612244, -0.17590053265306121, 0.061565187755102044, 0.061565187755102044, 0.10065419285714286, 0.10065419285714286, 0.08795026632653061, 0.10847199897959184, 0.12215315102040816, 0.12215315102040816, 0.03811178163265306, 0.03811178163265306, 0.029316754081632652, 0.042997909183673466, 0.042997909183673466, -0.033225657142857135, -0.033225657142857135, -0.05472461224489796, -0.007817801020408162, -0.007817801020408162, 0.10554031428571427, 0.10554031428571427, 0.07231466632653061, -0.09381361734693877, -0.09381361734693877, 0.13778875102040813, 0.13778875102040813, 0.19642226530612242, -0.3215070887755102, -0.3215070887755102, 0.28632696836734695, 0.28632696836734695, 0.023453404081632653, -0.1035858663265306, -0.03811178163265306, -0.0244306306122449, -0.0244306306122449, -0.052770157142857134, -0.003908901020408162, 0.11238089591836734, 0.07231466632653061, 0.01954450306122449, 0.029316754081632652, 0.12606204795918366, 0.23257958673469384, 0.25896466530612244, -0.10065419285714286, -0.4260702040816326, -0.5619044693877551, -0.4250929306122449, -0.40359399795918366, -0.4632047244897958, -0.3977306520408163, -0.3977306520408163, -0.2482151989795918, -0.2482151989795918, -0.23062513775510204, -0.19739948979591834, -0.1544015744897959, -0.1544015744897959, -0.13778875102040813, -0.13778875102040813, -0.14462933265306122, -0.10944922346938774, -0.10944922346938774, -0.08404136326530612, -0.08404136326530612, -0.08110969081632652, -0.02736230612244898, -0.02736230612244898, 0.0, 0.0, -0.029316754081632652, 0.1348570775510204, 0.1348570775510204, 0.24137462857142855, 0.24137462857142855, -0.3518010642857142, -0.491544275510204, -0.491544275510204, -0.43388799795918365, -0.43388799795918365, -0.554086675510204, 
7, 1.2118477624331216, 1.0700616061224488, 1.0700616061224488, 0.9635440673469388, 0.9586579459183673, 0.8736393397959183, 0.8179374612244898, 0.7612584071428571, 0.729987231632653, 0.729987231632653, 0.7202149408163264, 0.715328819387755, 0.7651673040816326, 0.8609354255102041, 0.8707076673469386, 0.8707076673469386, 0.8980699459183673, 0.9117510857142855, 0.8951382734693878, 0.9909063459183672, 0.9909063459183672, 1.0192458479591835, 1.0387903326530612, 1.1023100051020407, 1.1912375081632653, 1.2195770112244897, 1.2195770112244897, 1.2283720285714286, 1.160943557142857, 0.8482314132653062, 1.2058958714285712, 1.2058958714285712, 1.4101359306122447, 1.301663943877551, 1.1511713142857143, 1.0466081265306122, 0.9674529642857141, 0.9019788428571428, 0.8589809765306121, 0.7886207346938775, 0.6987160081632653, 0.6987160081632653, 0.7055565775510203, 0.7514861653061223, 0.7495317163265305, 0.770053425510204, 0.783734613265306, 0.7505089408163265, 0.7446455959183673, 0.9176144306122449, 0.9176144306122449, 0.010749477551020407, 0.010749477551020407, 0.13974319897959184, 0.04397513265306122, -0.07817801122448978, -0.12703927244897958, -0.1671055020408163, -0.10065419285714286, -0.07817801122448978, -0.06254241224489795, -0.05863350918367346, -0.04788403265306122, -0.006840576530612245, 0.0830641387755102, 0.0830641387755102, 0.0918591693877551, 0.05570183571428571, -0.003908901020408162, -0.11922147857142856, -0.11922147857142856, -0.10065419285714286, -0.014658377551020408, 0.09088194489795919, 0.06254241224489795, -0.010749477551020407, -0.010749477551020407, 0.4690680693877551, 0.18176388979591837, -0.12313037551020409, 0.029316754081632652, 0.029316754081632652, 0.12117592653061224, 0.036157332653061224, 0.0, -0.009772251020408162, 0.07231466632653061, 0.10749477551020407, 0.0869730418367347, 0.042997909183673466, 0.029316754081632652, 0.029316754081632652, 0.07133743571428572, 0.07133743571428572, 0.04788403265306122, 0.02736230612244898, 0.01368115306122449, -0.004886125510204081, 0.0029316755102040816, 0.04202068163265306, 0.04202068163265306, -0.45538693061224483, -0.45538693061224483, -0.3215070887755102, -0.2579874408163265, -0.2218301193877551, -0.22476179285714287, -0.22378456836734695, -0.19544504081632652, -0.18176388979591837, -0.1778549806122449, -0.12215315102040816, -0.08599581734693877, -0.07133743571428572, -0.008795026530612244, -0.008795026530612244, 0.010749477551020407, -0.01856727857142857, -0.06058796326530612, -0.02247617857142857, -0.02247617857142857, -0.04886126020408163, 0.01759005306122449, 0.0869730418367347, 0.14169764795918366, -0.11433534489795917, -0.11433534489795917, -0.31759819183673466, -0.22378456836734695, -0.29316756224489793, -0.5140204336734694, -0.5140204336734694, -0.4270474275510204, -0.36841390102040816, -0.31368929489795916, -0.23746570714285714, -0.19642226530612242, -0.19251335612244896, -0.1739460836734694, -0.1778549806122449, -0.17492330816326532, -0.17492330816326532, -0.16417382959183674, -0.14072042346938773, -0.1035858663265306, -0.08795026632653061, -0.08599581734693877, -0.06645131428571427, -0.03713455714285714, -0.01856727857142857, -0.01856727857142857, 
8, 1.19396380095373, 1.125763386734694, 1.0808110724489794, 1.2029641989795918, 1.2029641989795918, 1.5127445724489794, 1.5127445724489794, 1.2723472163265306, 0.716306043877551, 0.716306043877551, 1.2567116285714284, 1.2567116285714284, 1.3114361857142856, 1.0573576908163265, 1.0573576908163265, 0.8873204795918367, 0.8873204795918367, 0.8042563224489795, 0.7544178377551021, 0.7544178377551021, 0.7290100081632653, 0.7172832683673469, 0.7446455959183673, 0.9029560673469387, 0.9029560673469387, 0.8277097040816326, 0.8277097040816326, 0.8365047224489796, 0.868753219387755, 1.083742744897959, 1.083742744897959, 1.1462850959183672, 1.1462850959183672, 1.168761351020408, 1.1971008530612244, 1.1971008530612244, 1.2381442714285713, 1.2381442714285713, 0.9997013632653061, 0.8707076673469386, 1.2586660775510203, 1.2586660775510203, 1.2156681142857142, 1.2156681142857142, 1.0896060908163265, 0.8648443224489795, 0.8648443224489795, 0.7368278020408163, 0.7368278020408163, 0.7534406132653061, 0.747577268367347, 0.011726702040816326, -0.10456308979591837, 0.0869730418367347, 0.0869730418367347, -0.19446781734693877, -0.19446781734693877, -0.3478921673469388, -0.029316754081632652, -0.029316754081632652, 0.0029316755102040816, 0.0029316755102040816, -0.05570183571428571, -0.03127120612244898, -0.03127120612244898, -0.061565187755102044, -0.061565187755102044, -0.10456308979591837, -0.0869730418367347, -0.0869730418367347, -0.06840576326530612, -0.07329189081632653, -0.04592958469387755, 0.07426911428571428, 0.07426911428571428, 0.06254241224489795, 0.06254241224489795, -0.004886125510204081, -0.08110969081632652, -0.13681152653061224, -0.13681152653061224, 0.007817801020408162, 0.007817801020408162, -0.01368115306122449, -0.19642226530612242, -0.19642226530612242, 0.554086675510204, 0.554086675510204, 0.16515105306122446, -0.1153125693877551, 0.00195445, 0.00195445, 0.05374738775510204, 0.05374738775510204, 0.021498954081632653, 0.03908900612244898, 0.03908900612244898, 0.10847199897959184, 0.10847199897959184, 0.12606204795918366, 0.05374738775510204, -0.04495235714285714, 0.12801649591836733, 0.4162979122448979, 0.4162979122448979, -0.24430630204081633, -0.24430630204081633, -0.5413827602040816, -0.4866581551020408, -0.4866581551020408, -0.5228154510204082, -0.5228154510204082, -0.530633293877551, -0.27264582857142855, -0.27264582857142855, -0.2091261806122449, -0.2091261806122449, -0.22964791326530612, -0.18567278673469387, -0.18567278673469387, -0.1485382295918367, -0.13681152653061224, -0.08501859387755101, -0.009772251020408162, -0.009772251020408162, -0.07231466632653061, -0.07231466632653061, -0.06254241224489795, 0.01759005306122449, 0.04788403265306122, 0.04788403265306122, 0.11335812040816325, 0.11335812040816325, 0.1661282775510204, 0.07329189081632653, 0.07329189081632653, -0.40945734285714286, -0.40945734285714286, -0.45147803367346934, -0.3322565551020408, -0.39284453061224484, -0.39284453061224484, -0.3107575979591837, -0.3107575979591837, -0.22769346530612242, -0.1514699020408163, -0.1514699020408163, -0.15733325918367347, -0.15733325918367347, -0.12703927244897958, -0.12410759897959182, 
9, 1.2002812545705717, 0.770053425510204, 0.7856890622448979, 0.8198919102040816, 0.86191265, 0.8130513408163265, 0.8130513408163265, 0.8423680673469387, 0.8423680673469387, 0.9254322244897958, 0.9606123938775509, 0.9606123938775509, 1.0387903326530612, 1.0866744173469387, 1.1267406112244898, 1.1462850959183672, 1.1413989744897959, 1.2684383193877549, 1.3456390346938776, 1.160943557142857, 0.8130513408163265, 0.7251010622448979, 1.1042644540816327, 1.376910307142857, 1.3055728408163265, 1.0661527091836733, 0.9273866734693877, 0.8736393397959183, 0.8550720795918366, 0.8550720795918366, 0.8277097040816326, 0.7827573897959182, 0.7446455959183673, 0.7338961285714286, 0.7974157530612244, 0.9029560673469387, 0.885366030612245, 0.8580037530612245, 0.8316186010204081, 0.8501858612244898, 0.9537718244897959, 1.0554032418367347, 1.0407447816326532, 1.0641982602040814, 1.108173351020408, 1.108173351020408, 1.1296722836734694, 1.1599663326530611, 1.1277178357142856, 1.0348814357142857, 0.8736393397959183, 0.021498954081632653, 0.02247617857142857, 0.06058796326530612, 0.04983848469387755, -0.03518010612244898, -0.03518010612244898, -0.011726702040816326, -0.011726702040816326, 0.0244306306122449, -0.0029316755102040816, -0.0029316755102040816, 0.0029316755102040816, -0.06840576326530612, -0.07817801122448978, 0.01563560306122449, 0.1153125693877551, 0.07915524183673468, -0.2501696469387755, -0.40750289489795916, -0.315643743877551, 0.061565187755102044, 0.13681152653061224, 0.07133743571428572, 0.036157332653061224, 0.0283395306122449, -0.003908901020408162, -0.06938298775510203, -0.07915524183673468, -0.07915524183673468, -0.04592958469387755, -0.046906809183673466, -0.06449686020408163, -0.05472461224489796, -0.0029316755102040816, 0.0996769693877551, 0.13094816938775508, 0.12019870204081631, 0.07817801122448978, -0.04104345714285714, -0.13681152653061224, -0.07426911428571428, 0.0283395306122449, 0.07915524183673468, -0.0703602112244898, -0.0703602112244898, -0.06254241224489795, 0.3342110040816326, 0.6234696448979592, 0.269714156122449, -0.2394201806122449, -0.12899372040816326, -0.12215315102040816, -0.09674529081632652, -0.09674529081632652, -0.05179293265306122, -0.05179293265306122, -0.07329189081632653, -0.07329189081632653, -0.04592958469387755, -0.03908900612244898, -0.03908900612244898, -0.02247617857142857, 0.06547408469387754, 0.1905589081632653, 0.2990309071428571, 0.292190337755102, -0.02052172857142857, -0.5560411234693877, -0.8316186010204081, -0.7211921653061224, -0.4221612581632652, -0.37623169489795916, -0.4172751367346938, -0.36841390102040816, -0.26482803469387756, -0.19739948979591834, -0.21108062857142854, -0.22573901632653057, -0.22573901632653057, -0.19446781734693877, -0.15831048367346937, -0.12410759897959182, -0.07231466632653061, -0.0283395306122449, 0.02736230612244898, 0.003908901020408162, -0.026385078571428567, 0.003908901020408162, 0.09088194489795919, 0.08892749081632653, 0.03029398163265306, 0.042997909183673466, 0.1387659744897959, 0.23844295612244898, 0.23844295612244898, 0.12313037551020409, -0.0703602112244898, -0.5863351234693878, -0.5804717785714285, -0.4368196704081632, 
10, 1.1537302803632925, 0.8736393397959183, 0.9723390846938774, 1.3124134102040814, 1.4668150336734693, 1.340752913265306, 1.0778794, 1.0778794, 0.9664757397959183, 0.8824343581632652, 0.8023018734693877, 0.7290100081632653, 0.7290100081632653, 0.7514861653061223, 0.7690762010204081, 0.7368278020408163, 0.7368278020408163, 0.6957843357142857, 0.6762398510204081, 0.8521404071428571, 0.8521404071428571, 1.0143597275510203, 1.0143597275510203, 1.0641982602040814, 1.0886288663265307, 1.0886288663265307, 1.5479246448979591, 1.5479246448979591, 1.7345747653061225, 1.2752788897959182, 0.9234777765306121, 0.9234777765306121, 1.359320270408163, 1.359320270408163, 1.1824424897959183, 0.9821113275510203, 0.9821113275510203, 0.9097966367346938, 0.9097966367346938, 0.8501858612244898, 0.7426911469387755, 0.7426911469387755, 0.6723309051020407, 0.6723309051020407, 0.6996932326530613, 0.7514861653061223, 0.8472541887755102, 0.8589809765306121, 0.8736393397959183, 0.840413619387755, 0.8374819459183672, -0.2394201806122449, -0.4661363969387755, -0.3048942530612245, -0.03518010612244898, 0.22476179285714287, 0.07329189081632653, 0.07329189081632653, 0.04788403265306122, 0.08110969081632652, 0.0869730418367347, 0.08501859387755101, 0.08501859387755101, 0.08404136326530612, 0.0752463387755102, -0.006840576530612245, -0.006840576530612245, -0.03713455714285714, -0.05570183571428571, 0.05570183571428571, 0.05570183571428571, 0.07329189081632653, 0.07329189081632653, 0.01368115306122449, -0.12410759897959182, -0.12410759897959182, 0.10260864183673468, 0.10260864183673468, -0.26287358673469385, -0.33811992551020403, 0.19446781734693877, 0.19446781734693877, -0.2599418897959183, -0.2599418897959183, -0.061565187755102044, 0.12801649591836733, 0.12801649591836733, -0.05472461224489796, -0.05472461224489796, -0.11726701734693877, -0.08208691428571428, -0.08208691428571428, -0.07231466632653061, -0.07231466632653061, -0.011726702040816326, 0.052770157142857134, 0.08404136326530612, 0.0703602112244898, 0.033225657142857135, 0.025407854081632653, 0.00195445, -0.4368196704081632, -0.4446374642857142, -0.41532068877551015, -0.40261677346938773, -0.2843725193877551, -0.1504926775510204, -0.1504926775510204, -0.12019870204081631, -0.1182442418367347, -0.1182442418367347, -0.1739460836734694, -0.1739460836734694, -0.1485382295918367, -0.10749477551020407, -0.06547408469387754, -0.06547408469387754, -0.0703602112244898, -0.04202068163265306, 0.009772251020408162, 0.009772251020408162, -0.06254241224489795, -0.06254241224489795, -0.05863350918367346, 0.23257958673469384, 0.23257958673469384, 0.05961073877551021, 0.05961073877551021, -0.31368929489795916, -0.3195526408163265, -0.4417057908163265, -0.4417057908163265, -0.5589727969387756, -0.5589727969387756, -0.5277016214285714, -0.24919242244897957, -0.24919242244897957, -0.12410759897959182, -0.12410759897959182, -0.14560655714285714, -0.16026493265306122, -0.16026493265306122, -0.09381361734693877, -0.09381361734693877, -0.06645131428571427, -0.032248430612244895, -0.007817801020408162, -0.011726702040816326, -0.03518010612244898, -0.06449686020408163, 0.009772251020408162, 
11, 1.2176961824250168, 1.0446536785714284, 1.0446536785714284, 1.1599663326530611, 1.1286950602040815, 1.2215314591836732, 1.2215314591836732, 1.3808192040816325, 1.3808192040816325, 1.2459620653061225, 0.9205461030612245, 0.9303183459183673, 1.1130594724489795, 1.3466162581632652, 1.3319578948979591, 1.1795108173469386, 1.0798338479591836, 1.0182686244897958, 0.8834115826530612, 0.7680989775510203, 0.7680989775510203, 0.7192377163265306, 0.6821031959183673, 0.6537636448979591, 0.7006704561224489, 0.7524633897959183, 0.7905751836734694, 0.7856890622448979, 0.7808029408163265, 0.7895979591836734, 0.8267324795918367, 0.9117510857142855, 0.9938380183673468, 1.0817882969387753, 1.0817882969387753, 1.1159911448979591, 1.1980780775510202, 1.269415543877551, 1.5713781244897957, 1.5713781244897957, 1.299709494897959, 0.7856890622448979, 0.7680989775510203, 1.0182686244897958, 1.2205542346938774, 1.217622562244898, 1.007519157142857, 0.9703846367346938, 0.9567034969387754, 0.9567034969387754, 0.9254322244897958, -0.17003718673469387, -0.17003718673469387, -0.12997094489795916, -0.046906809183673466, -0.03908900612244898, -0.03908900612244898, 0.3811178163265306, 0.3811178163265306, 0.38209503979591836, -0.10554031428571427, -0.2609191132653061, -0.12899372040816326, 0.08501859387755101, 0.1475610051020408, 0.1153125693877551, 0.06254241224489795, 0.05179293265306122, 0.036157332653061224, 0.10163141734693877, 0.10163141734693877, 0.05961073877551021, 0.04104345714285714, 0.023453404081632653, 0.052770157142857134, 0.0674285387755102, 0.06840576326530612, 0.01368115306122449, -0.03713455714285714, -0.06449686020408163, -0.07817801122448978, -0.03029398163265306, 0.03420288163265306, 0.061565187755102044, 0.061565187755102044, 0.0, 0.03127120612244898, 0.13192540510204082, -0.44561468775510205, -0.44561468775510205, -0.3420288224489796, 0.12703927244897958, 0.2736230530612245, 0.07915524183673468, -0.1544015744897959, -0.1358343020408163, 0.05570183571428571, 0.05667906020408162, -0.042997909183673466, -0.042997909183673466, -0.06254241224489795, 0.04495235714285714, 0.04495235714285714, 0.01759005306122449, 0.08990471428571428, 0.2960992346938775, 0.2960992346938775, -0.21108062857142854, -0.21108062857142854, -0.530633293877551, -0.4954531724489796, -0.3830722642857143, -0.3781861428571428, -0.3664594520408163, -0.37330002244897953, -0.2482151989795918, -0.2198756714285714, -0.1934905806122449, -0.18860445918367344, -0.14560655714285714, -0.14560655714285714, -0.1485382295918367, -0.1475610051020408, -0.12606204795918366, -0.0830641387755102, -0.061565187755102044, -0.04104345714285714, -0.011726702040816326, -0.010749477551020407, -0.02052172857142857, -0.03811178163265306, -0.07915524183673468, -0.08599581734693877, 0.005863351020408163, 0.005863351020408163, 0.1671055020408163, 0.2980536826530612, 0.3342110040816326, -0.4739541908163265, -0.4739541908163265, -0.43388799795918365, -0.45538693061224483, -0.3332337795918367, -0.4172751367346938, -0.475908687755102, -0.48861260306122445, -0.4202068091836735, -0.2970764591836734, -0.19642226530612242, -0.19642226530612242, -0.21498954999999997, 
12, 1.340929327537919, 0.8120741163265306, 0.7417139224489795, 0.7026249051020408, 0.8228235826530611, 0.8228235826530611, 0.8365047224489796, 0.8140285642857142, 0.8032790979591836, 0.8365047224489796, 0.8365047224489796, 0.8736393397959183, 0.9117510857142855, 0.9723390846938774, 1.041722006122449, 1.041722006122449, 1.0554032418367347, 1.1355356295918366, 1.3573658224489795, 1.40036368877551, 1.03097253877551, 0.8628898734693877, 1.009473606122449, 1.5567197602040816, 1.5567197602040816, 1.3387984642857143, 1.2137136653061225, 1.1394445265306121, 1.0270636418367347, 0.7612584071428571, 0.7612584071428571, 0.7084882499999999, 0.6381280571428571, 0.6107657295918366, 0.6508319714285714, 0.7534406132653061, 0.7534406132653061, 0.7553950622448979, 0.729987231632653, 0.7397594744897958, 0.8931838244897958, 0.8931838244897958, 1.0212002969387755, 1.0974238846938775, 1.0749477265306122, 1.0817882969387753, 1.1453078714285714, 1.2313037020408162, 1.2752788897959182, 1.6876678081632652, 1.6876678081632652, -0.04886126020408163, -0.029316754081632652, -0.03713455714285714, -0.012703927551020408, -0.012703927551020408, -0.014658377551020408, -0.033225657142857135, -0.0703602112244898, -0.05765628469387755, -0.05765628469387755, -0.0703602112244898, -0.0830641387755102, -0.06938298775510203, 0.009772251020408162, 0.009772251020408162, -0.03420288163265306, -0.12997094489795916, 0.18860445918367344, 0.8443225163265304, -0.22573901632653057, -0.37232279795918366, -0.21498954999999997, 0.30000813163265305, 0.30000813163265305, 0.14560655714285714, 0.036157332653061224, 0.01954450306122449, 0.0703602112244898, 0.11140367244897958, 0.11140367244897958, 0.16319660510204081, 0.11628979285714285, 0.05374738775510204, 0.050815709183673466, 0.04886126020408163, 0.04886126020408163, 0.004886125510204081, -0.03908900612244898, -0.05472461224489796, 0.029316754081632652, 0.029316754081632652, 0.08501859387755101, 0.08013246632653061, 0.01563560306122449, -0.08990471428571428, -0.08404136326530612, 0.13681152653061224, 0.2970764591836734, -0.7974157530612244, -0.7974157530612244, -0.18665001122448976, -0.1719916357142857, -0.12410759897959182, -0.0752463387755102, -0.0752463387755102, -0.06449686020408163, -0.06547408469387754, -0.07426911428571428, -0.03908900612244898, -0.03908900612244898, 0.01954450306122449, 0.010749477551020407, 0.025407854081632653, 0.12215315102040816, 0.12215315102040816, 0.23062513775510204, 0.14560655714285714, -0.3459377193877551, -0.538451087755102, -0.36352777959183674, -0.35668718571428565, -0.4661363969387755, -0.41336623979591836, -0.41336623979591836, -0.323461537755102, -0.2159667744897959, -0.1837183387755102, -0.15537879897959184, -0.1719916357142857, -0.1719916357142857, -0.16124215612244897, -0.14365209591836733, -0.1358343020408163, -0.10749477551020407, -0.07133743571428572, -0.07133743571428572, -0.04886126020408163, -0.036157332653061224, -0.03420288163265306, -0.06058796326530612, -0.06058796326530612, -0.0674285387755102, -0.07720078775510204, -0.01368115306122449, 0.17296885918367347, 0.3303021071428571, 0.4954531724489796, 0.4006623244897959, -0.8736393397959183, -0.8736393397959183, 
13, 1.1455264300575763, 1.6876678081632652, 0.37134557346938774, 0.37134557346938774, 0.7573495102040816, 1.4961317612244898, 1.4961317612244898, 1.009473606122449, 1.009473606122449, 0.9567034969387754, 0.9293411214285714, 0.8834115826530612, 0.7974157530612244, 0.7544178377551021, 0.7006704561224489, 0.6879665418367346, 0.724123837755102, 0.8433452918367346, 0.8433452918367346, 0.8365047224489796, 0.853117631632653, 0.8892749275510203, 0.9303183459183673, 0.9596351704081632, 1.0202230724489796, 1.0358586602040816, 1.0456309030612243, 1.1150139204081633, 1.2225086836734693, 1.2146908897959183, 1.1912375081632653, 1.1560574357142857, 1.1560574357142857, 0.8746165642857142, 0.8746165642857142, 1.1902602836734695, 1.4316348642857142, 1.4316348642857142, 1.1990553020408161, 1.0260864183673468, 0.9019788428571428, 0.8550720795918366, 0.775916819387755, 0.7211921653061224, 0.7055565775510203, 0.7055565775510203, 0.7563722867346938, 0.783734613265306, 0.816960237755102, 0.7788484928571427, 0.7612584071428571, -0.7974157530612244, 0.23355681020408162, 0.23355681020408162, 0.3146665193877551, -0.1876272357142857, -0.1876272357142857, -0.021498954081632653, -0.021498954081632653, -0.02736230612244898, -0.04983848469387755, -0.10554031428571427, -0.09576806632653061, -0.06840576326530612, -0.06547408469387754, -0.0703602112244898, -0.06645131428571427, 0.10651755102040815, 0.10651755102040815, 0.09479084183673468, 0.050815709183673466, -0.021498954081632653, -0.08892749081632653, -0.1182442418367347, -0.15831048367346937, -0.06254241224489795, 0.032248430612244895, 0.08599581734693877, -0.02052172857142857, -0.16417382959183674, -0.19153613265306121, 0.584380675510204, 0.584380675510204, -0.2560329928571428, -0.2560329928571428, -0.26287358673469385, 0.0703602112244898, 0.0703602112244898, 0.08892749081632653, 0.036157332653061224, -0.006840576530612245, 0.05765628469387755, 0.12899372040816326, 0.14951545408163264, 0.07915524183673468, 0.07915524183673468, 0.04886126020408163, 0.010749477551020407, -0.01563560306122449, -0.023453404081632653, -0.04788403265306122, -0.8736393397959183, -0.45245525816326526, -0.45245525816326526, -0.43584244591836735, -0.4671136214285714, -0.4671136214285714, -0.323461537755102, -0.323461537755102, -0.23062513775510204, -0.17687775612244896, -0.18274111428571427, -0.18176388979591837, -0.1778549806122449, -0.14462933265306122, -0.10847199897959184, -0.05472461224489796, 0.0244306306122449, 0.0244306306122449, 0.005863351020408163, -0.004886125510204081, -0.004886125510204081, 0.04592958469387755, 0.05472461224489796, 0.03029398163265306, 0.03811178163265306, 0.0869730418367347, 0.1934905806122449, 0.2482151989795918, 0.26873693163265305, -0.008795026530612244, -0.5961073663265306, -0.5961073663265306, -0.292190337755102, -0.292190337755102, -0.36450500408163267, -0.3459377193877551, -0.3459377193877551, -0.22573901632653057, -0.18469556224489794, -0.12899372040816326, -0.15635602346938776, -0.12703927244897958, -0.12019870204081631, -0.10554031428571427, -0.10554031428571427, -0.06645131428571427, -0.050815709183673466, -0.04495235714285714, -0.02247617857142857, -0.0244306306122449, 
14, 1.2074894510771572, 0.8335730489795917, 0.9742935336734694, 1.0290180908163264, 1.0778794, 1.0456309030612243, 1.108173351020408, 1.4511794459183671, 1.4511794459183671, 1.6788727897959184, 1.3857053255102039, 0.8501858612244898, 1.1335811806122447, 1.1335811806122447, 1.2684383193877549, 1.2557344051020407, 0.9967696908163265, 0.9107738612244897, 0.9107738612244897, 0.8179374612244898, 0.8179374612244898, 0.7446455959183673, 0.6811259714285713, 0.6811259714285713, 0.776894043877551, 0.776894043877551, 0.8306413765306122, 0.8570265285714285, 0.8570265285714285, 0.8482314132653062, 0.8834115826530612, 0.941067812244898, 1.0554032418367347, 1.1238089387755101, 1.0984011081632652, 1.2039414234693877, 1.2039414234693877, 1.4374982091836732, 1.5137217969387753, 1.279187786734694, 0.8345502734693876, 0.8560493040816326, 1.0221775214285713, 1.2703927683673468, 1.253779956122449, 1.253779956122449, 1.1306495081632653, 1.031949763265306, 0.9234777765306121, 0.8150057887755101, 0.7788484928571427, -0.0244306306122449, 0.06840576326530612, 0.09283639387755102, 0.04983848469387755, -0.08404136326530612, -0.1387659744897959, 0.09869974489795917, 0.09869974489795917, -0.24626074999999997, -0.45538693061224483, 0.12313037551020409, 0.007817801020408162, 0.007817801020408162, -0.06840576326530612, 0.033225657142857135, 0.14267487142857144, -0.03811178163265306, -0.03811178163265306, -0.13387985408163267, -0.13387985408163267, -0.12899372040816326, -0.1182442418367347, -0.1182442418367347, -0.050815709183673466, -0.050815709183673466, 0.03908900612244898, 0.08501859387755101, 0.08208691428571428, 0.046906809183673466, -0.006840576530612245, -0.15733325918367347, -0.2218301193877551, -0.12997094489795916, -0.08110969081632652, 0.008795026530612244, 0.008795026530612244, -0.13094816938775508, 0.3068487010204082, 0.41922958571428565, 0.033225657142857135, -0.20033116224489794, -0.16905996224489794, -0.03713455714285714, 0.10456308979591837, 0.10456308979591837, 0.04202068163265306, 0.011726702040816326, 0.01563560306122449, 0.026385078571428567, 0.07915524183673468, 0.03420288163265306, 0.01368115306122449, -0.007817801020408162, -0.016612828571428567, 0.08795026632653061, 0.24528352551020408, 0.21205785306122446, 0.21205785306122446, -0.21498954999999997, -0.5101115367346938, -0.5746083846938774, -0.44952358469387754, -0.44952358469387754, -0.49349872448979587, -0.4905670520408163, -0.34105159795918366, -0.12801649591836733, -0.12801649591836733, -0.1153125693877551, -0.1153125693877551, -0.14560655714285714, -0.12117592653061224, -0.12117592653061224, -0.007817801020408162, -0.007817801020408162, 0.046906809183673466, 0.05179293265306122, -0.00195445, -0.011726702040816326, 0.03518010612244898, 0.05570183571428571, 0.016612828571428567, 0.0869730418367347, 0.12801649591836733, 0.3215070887755102, 0.3215070887755102, 0.016612828571428567, -0.1778549806122449, -0.3205298642857143, -0.5443144326530611, -0.41238901530612243, -0.3693911255102041, -0.3605960826530612, -0.28925866530612243, -0.28925866530612243, -0.1710144112244898, -0.1387659744897959, -0.14072042346938773, -0.12019870204081631, -0.15244712653061224, 
15, 1.2548678472557877, 0.7788484928571427, 0.6899209897959183, 0.6576725418367346, 0.6566953173469388, 0.6742853530612244, 0.7348733530612245, 0.7817801653061224, 0.7680989775510203, 0.7456228193877551, 0.7690762010204081, 1.0065419336734693, 1.0065419336734693, 1.1472623204081631, 1.1199000418367346, 1.1492167683673469, 1.2596433020408162, 1.2596433020408162, 1.8000487887755103, 1.6769183408163266, 0.775916819387755, 0.775916819387755, 1.2264175806122448, 1.2264175806122448, 1.277233337755102, 0.9879746724489796, 0.9879746724489796, 0.8951382734693878, 0.8951382734693878, 0.8384591704081633, 0.7426911469387755, 0.7104426989795918, 0.7104426989795918, 0.7446455959183673, 0.7446455959183673, 0.7632128561224489, 0.832595825510204, 0.832595825510204, 0.8492086367346937, 0.8492086367346937, 0.9097966367346938, 1.0954694357142856, 1.0954694357142856, 1.1912375081632653, 1.1912375081632653, 1.4668150336734693, 1.5498790938775509, 1.0426992295918365, 1.0426992295918365, 0.8306413765306122, 1.0212002969387755, 0.07915524183673468, 0.07720078775510204, 0.04202068163265306, 0.0283395306122449, 0.03908900612244898, 0.05667906020408162, 0.07426911428571428, 0.010749477551020407, -0.04104345714285714, -0.016612828571428567, 0.12801649591836733, 0.12801649591836733, 0.0918591693877551, -0.03029398163265306, -0.1544015744897959, 0.08990471428571428, 0.08990471428571428, 0.0674285387755102, -0.5648361418367347, 0.1153125693877551, 0.1153125693877551, -0.046906809183673466, -0.046906809183673466, 0.005863351020408163, 0.061565187755102044, 0.061565187755102044, -0.07720078775510204, -0.07720078775510204, -0.11140367244897958, -0.1592877081632653, -0.07915524183673468, -0.07915524183673468, -0.04886126020408163, -0.04886126020408163, -0.0029316755102040816, 0.1153125693877551, 0.1153125693877551, -0.016612828571428567, -0.016612828571428567, -0.1465837806122449, -0.08892749081632653, -0.08892749081632653, 0.10163141734693877, 0.10163141734693877, -0.05667906020408162, 0.2521240959183673, 0.016612828571428567, 0.016612828571428567, -0.15244712653061224, -0.0635196357142857, -0.15244712653061224, -0.15244712653061224, -0.13778875102040813, -0.1182442418367347, -0.08892749081632653, -0.06449686020408163, -0.042997909183673466, -0.01954450306122449, 0.005863351020408163, 0.006840576530612245, -0.011726702040816326, -0.011726702040816326, -0.0283395306122449, 0.04886126020408163, 0.261896337755102, 0.35277828877551015, 0.35277828877551015, -0.06547408469387754, -0.2843725193877551, -0.5413827602040816, -0.5413827602040816, -0.5267243969387755, -0.5267243969387755, -0.547246106122449, -0.33811992551020403, -0.33811992551020403, -0.1465837806122449, -0.1465837806122449, -0.1514699020408163, -0.17296885918367347, -0.14267487142857144, -0.14267487142857144, -0.021498954081632653, -0.021498954081632653, 0.0029316755102040816, 0.029316754081632652, 0.029316754081632652, 0.023453404081632653, 0.023453404081632653, 0.06449686020408163, 0.09479084183673468, 0.09479084183673468, 0.33616545204081627, 0.33616545204081627, 0.07915524183673468, -0.26482803469387756, -0.41238901530612243, -0.41238901530612243, -0.49643039693877544, -0.3830722642857143, 
16, 1.2799553671053243, 1.4228398459183673, 1.1443306479591837, 1.1443306479591837, 1.0299953153061223, 0.885366030612245, 0.7876435102040815, 0.7876435102040815, 0.6322647112244898, 0.6322647112244898, 0.6224924204081632, 0.737805025510204, 0.737805025510204, 0.809142443877551, 0.809142443877551, 0.7876435102040815, 0.9205461030612245, 0.9205461030612245, 1.1228317142857143, 1.1228317142857143, 1.1101277989795917, 1.2049186469387754, 1.2801650102040816, 1.5068812275510204, 1.5068812275510204, 1.0974238846938775, 0.6889437653061224, 0.8765710132653061, 0.9948152428571428, 1.225440356122449, 1.3319578948979591, 1.0944922112244897, 1.0133825030612245, 0.9469311581632651, 0.9225005520408163, 0.8863432551020408, 0.8120741163265306, 0.7651673040816326, 0.7075110265306122, 0.7075110265306122, 0.7251010622448979, 0.7632128561224489, 0.7729850979591837, 0.7729850979591837, 0.9097966367346938, 0.9097966367346938, 1.0827655204081632, 1.0163141755102039, 1.0163141755102039, 1.1413989744897959, 1.3759330826530611, 0.06547408469387754, -0.01368115306122449, -0.01368115306122449, 0.02247617857142857, 0.04202068163265306, 0.08013246632653061, 0.08013246632653061, 0.06547408469387754, 0.06547408469387754, 0.06840576326530612, 0.029316754081632652, 0.029316754081632652, -0.0244306306122449, -0.0244306306122449, -0.04788403265306122, 0.046906809183673466, 0.046906809183673466, 0.03713455714285714, 0.03713455714285714, -0.19739948979591834, -0.22378456836734695, 0.07426911428571428, -0.2560329928571428, -0.2560329928571428, -0.17687775612244896, 0.033225657142857135, 0.02247617857142857, -0.06645131428571427, -0.12215315102040816, -0.05179293265306122, 0.07622356326530612, -0.008795026530612244, -0.042997909183673466, -0.07720078775510204, -0.12313037551020409, -0.10260864183673468, -0.052770157142857134, -0.05765628469387755, -0.05765628469387755, -0.0283395306122449, 0.032248430612244895, 0.08892749081632653, 0.08892749081632653, -0.11140367244897958, -0.11140367244897958, -0.2159667744897959, -0.008795026530612244, -0.008795026530612244, 0.07133743571428572, -0.08013246632653061, -0.3478921673469388, -0.20424005918367344, -0.20424005918367344, -0.15831048367346937, -0.12899372040816326, -0.1475610051020408, -0.1475610051020408, -0.12801649591836733, -0.12801649591836733, -0.09674529081632652, -0.04788403265306122, -0.04788403265306122, -0.029316754081632652, -0.029316754081632652, -0.008795026530612244, -0.025407854081632653, -0.025407854081632653, -0.05765628469387755, -0.05765628469387755, 0.14560655714285714, 0.34105159795918366, 0.4006623244897959, -0.4465919122448979, -0.4465919122448979, -0.5081570877551019, -0.46027305204081626, -0.4612502755102041, -0.4280246520408163, -0.4739541908163265, -0.4974076214285714, -0.3742772459183673, -0.23551125918367347, -0.1504926775510204, -0.13094816938775508, -0.13290262959183674, -0.1348570775510204, -0.12899372040816326, -0.05667906020408162, -0.05667906020408162, -0.03908900612244898, 0.007817801020408162, 0.04397513265306122, 0.04397513265306122, 0.061565187755102044, 0.061565187755102044, -0.02736230612244898, 0.2364884836734694, 0.2364884836734694, 0.33127933163265305, 0.0918591693877551, 
17, 1.3067935162781878, 1.3759330826530611, 1.6192621112244896, 1.3651836163265305, 0.9303183459183673, 0.8628898734693877, 1.0778794, 1.3886369979591835, 1.252802731632653, 1.101332781632653, 1.101332781632653, 1.031949763265306, 0.869730443877551, 0.7641900806122449, 0.7544178377551021, 0.729987231632653, 0.6664675591836734, 0.6713536806122449, 0.6654903357142856, 0.7172832683673469, 0.8257552551020407, 0.808165219387755, 0.808165219387755, 0.7856890622448979, 0.8511631826530612, 0.9957924663265305, 1.1042644540816327, 1.0886288663265307, 1.1365128540816325, 1.2283720285714286, 1.2879828040816326, 1.586036487755102, 1.5938542816326529, 0.8843888071428571, 0.6586497653061224, 0.8804799102040817, 1.3260945499999999, 1.3260945499999999, 1.1580118836734694, 0.9899291214285714, 0.9586579459183673, 0.8667987704081632, 0.8667987704081632, 0.7993702010204081, 0.746600043877551, 0.716306043877551, 0.7123971469387754, 0.7036021295918367, 0.747577268367347, 0.8062107704081631, 0.8423680673469387, -0.08013246632653061, 0.2579874408163265, 0.35668718571428565, -0.040066232653061216, -0.12801649591836733, -0.03908900612244898, 0.03029398163265306, -0.03029398163265306, 0.00195445, 0.00195445, 0.029316754081632652, 0.08110969081632652, 0.07817801122448978, 0.09283639387755102, 0.12508482346938776, 0.0752463387755102, 0.046906809183673466, 0.0283395306122449, 0.03029398163265306, 0.0283395306122449, -0.03029398163265306, -0.03029398163265306, -0.032248430612244895, 0.025407854081632653, 0.06449686020408163, 0.01954450306122449, -0.029316754081632652, -0.03811178163265306, -0.006840576530612245, 0.13387985408163267, 0.0283395306122449, -0.47981758469387753, -0.10554031428571427, 0.11433534489795917, 0.0752463387755102, -0.03029398163265306, -0.03029398163265306, -0.01954450306122449, 0.0009772255102040816, -0.009772251020408162, -0.10944922346938774, -0.10944922346938774, -0.12997094489795916, -0.11335812040816325, -0.0674285387755102, -0.0996769693877551, -0.08990471428571428, -0.040066232653061216, 0.06449686020408163, 0.12215315102040816, 0.0918591693877551, -0.2667824836734694, -0.3322565551020408, -0.38991285816326526, -0.37330002244897953, -0.32737043469387755, -0.36841390102040816, -0.2706913806122449, -0.2091261806122449, -0.2091261806122449, -0.19446781734693877, -0.16319660510204081, -0.14072042346938773, -0.14169764795918366, -0.13681152653061224, -0.12313037551020409, -0.0918591693877551, -0.05472461224489796, -0.061565187755102044, -0.0703602112244898, -0.010749477551020407, -0.010749477551020407, -0.026385078571428567, -0.05179293265306122, -0.06058796326530612, -0.04397513265306122, 0.03420288163265306, 0.18176388979591837, 0.2970764591836734, 0.2706913806122449, -0.24528352551020408, -0.46809084591836736, -0.5013165183673469, -0.49643039693877544, -0.4006623244897959, -0.44854636122448976, -0.44854636122448976, -0.38893563367346934, -0.3205298642857143, -0.22378456836734695, -0.1807866530612245, -0.1807866530612245, -0.21108062857142854, -0.2091261806122449, -0.18176388979591837, -0.1348570775510204, -0.08599581734693877, -0.04202068163265306, 0.00195445, -0.004886125510204081, 
18, 1.2436998380699549, 0.885366030612245, 0.8882977040816326, 1.041722006122449, 1.075924951020408, 1.1785335928571428, 1.1785335928571428, 1.4052498102040816, 1.4052498102040816, 1.2899372530612243, 0.9733163091836733, 0.9733163091836733, 0.8609354255102041, 1.0436764540816326, 1.353456925510204, 1.3993864642857141, 1.2098047683673467, 1.060289363265306, 0.8384591704081633, 0.8384591704081633, 0.7974157530612244, 0.7622356316326531, 0.7622356316326531, 0.7211921653061224, 0.7211921653061224, 0.7319416806122448, 0.8179374612244898, 0.8179374612244898, 0.7534406132653061, 0.7534406132653061, 0.8306413765306122, 0.9703846367346938, 0.9703846367346938, 0.991883569387755, 0.991883569387755, 1.0739705030612245, 1.5264257122448979, 1.5264257122448979, 1.787344874489796, 1.3387984642857143, 0.7729850979591837, 0.86191265, 0.9899291214285714, 1.108173351020408, 1.2225086836734693, 1.0045874846938774, 1.0045874846938774, 1.041722006122449, 0.9674529642857141, 0.9488856061224489, 0.8218463581632652, 0.02736230612244898, -0.07622356326530612, -0.21205785306122446, -0.12703927244897958, 0.13094816938775508, 0.13094816938775508, -0.2130351020408163, -0.2130351020408163, 0.19544504081632652, -0.006840576530612245, -0.006840576530612245, -0.09674529081632652, -0.10944922346938774, -0.04983848469387755, 0.01954450306122449, 0.10163141734693877, 0.11726701734693877, 0.04983848469387755, 0.04983848469387755, 0.06547408469387754, 0.1348570775510204, 0.1348570775510204, 0.05961073877551021, 0.05961073877551021, 0.01954450306122449, -0.05765628469387755, -0.05765628469387755, -0.06254241224489795, -0.06254241224489795, -0.052770157142857134, 0.01856727857142857, 0.01856727857142857, 0.010749477551020407, 0.010749477551020407, -0.033225657142857135, 0.06938298775510203, 0.06938298775510203, -0.3283476581632653, -0.3205298642857143, 0.1622193806122449, 0.2501696469387755, -0.06058796326530612, -0.2843725193877551, -0.18665001122448976, 0.1739460836734694, 0.1739460836734694, 0.01954450306122449, -0.06645131428571427, -0.10749477551020407, -0.11335812040816325, -0.05374738775510204, 0.007817801020408162, 0.0918591693877551, 0.0918591693877551, 0.25896466530612244, 0.25896466530612244, 0.15831048367346937, 0.15831048367346937, -0.4172751367346938, -0.5433372091836735, -0.5433372091836735, -0.3293248826530612, -0.37134557346938774, -0.35668718571428565, -0.33127933163265305, -0.22964791326530612, -0.17590053265306121, -0.16124215612244897, -0.16124215612244897, -0.15342435102040816, -0.11726701734693877, -0.11726701734693877, -0.0635196357142857, -0.0635196357142857, -0.050815709183673466, -0.03518010612244898, -0.03518010612244898, 0.01563560306122449, 0.01563560306122449, -0.011726702040816326, -0.10944922346938774, -0.10944922346938774, 0.05179293265306122, 0.05179293265306122, 0.22769346530612242, 0.1153125693877551, 0.1153125693877551, -0.33811992551020403, -0.23062513775510204, -0.1485382295918367, -0.3742772459183673, -0.475908687755102, -0.5257471724489795, -0.43291077346938767, -0.22378456836734695, -0.22378456836734695, -0.13387985408163267, -0.11140367244897958, -0.1504926775510204, -0.16124215612244897, 
19, 1.2766895811169694, 0.7211921653061224, 0.6713536806122449, 0.6948071112244897, 0.7006704561224489, 0.7368278020408163, 0.7827573897959182, 0.8394363948979592, 0.8257552551020407, 0.832595825510204, 0.832595825510204, 0.9694074122448979, 1.1042644540816327, 1.1052416785714285, 1.0935149877551018, 1.225440356122449, 1.4502021244897958, 1.4717011551020407, 1.2889600285714284, 0.8472541887755102, 1.2420531683673468, 1.2420531683673468, 1.4971089846938774, 1.325117325510204, 1.1120822479591836, 0.8648443224489795, 0.8648443224489795, 0.8101196673469387, 0.7632128561224489, 0.7133743714285713, 0.7036021295918367, 0.7045793530612244, 0.7280327836734694, 0.7856890622448979, 0.8267324795918367, 0.80132465, 0.80132465, 0.784711837755102, 0.8462769642857142, 0.9606123938775509, 1.0368358846938774, 1.048562575510204, 1.0143597275510203, 1.1179455928571427, 1.247916513265306, 1.4355437612244897, 1.5361979540816326, 1.4863595183673468, 1.1286950602040815, 0.6840576448979592, 0.9097966367346938, -0.06938298775510203, -0.08404136326530612, -0.11140367244897958, -0.11433534489795917, -0.0703602112244898, 0.025407854081632653, 0.07329189081632653, 0.07622356326530612, -0.05961073877551021, -0.05961073877551021, -0.18176388979591837, -0.22867068979591834, -0.05374738775510204, 0.13094816938775508, 0.05374738775510204, -0.1934905806122449, 0.13778875102040813, 0.27460027755102034, -0.09381361734693877, 0.02247617857142857, 0.02247617857142857, 0.12703927244897958, 0.11238089591836734, 0.05374738775510204, 0.06938298775510203, 0.06938298775510203, 0.08990471428571428, 0.12215315102040816, 0.11433534489795917, 0.08599581734693877, 0.029316754081632652, 0.008795026530612244, -0.012703927551020408, -0.03713455714285714, -0.05667906020408162, -0.05667906020408162, -0.05570183571428571, -0.026385078571428567, 0.06058796326530612, 0.10456308979591837, 0.0703602112244898, -0.04886126020408163, -0.13094816938775508, 0.008795026530612244, 0.2501696469387755, -0.05765628469387755, -0.4788403612244898, -0.3205298642857143, 0.004886125510204081, 0.13974319897959184, -0.1710144112244898, -0.13974319897959184, -0.10456308979591837, -0.07231466632653061, -0.040066232653061216, -0.0009772255102040816, 0.01759005306122449, 0.0009772255102040816, 0.04202068163265306, 0.04202068163265306, -0.012703927551020408, -0.03713455714285714, 0.13192540510204082, 0.27753194999999997, 0.28925866530612243, -0.046906809183673466, -0.44072856734693877, -0.43291077346938767, -0.354732737755102, -0.33909714999999996, -0.33909714999999996, -0.354732737755102, -0.2843725193877551, -0.1905589081632653, -0.12117592653061224, -0.12117592653061224, -0.12997094489795916, -0.10847199897959184, -0.10065419285714286, -0.08404136326530612, -0.07231466632653061, -0.05179293265306122, -0.061565187755102044, -0.042997909183673466, 0.003908901020408162, 0.003908901020408162, 0.03029398163265306, 0.02052172857142857, -0.04104345714285714, -0.09381361734693877, -0.08501859387755101, 0.11140367244897958, 0.2706913806122449, 0.42118403367346935, 0.27655472551020405, -0.21792122346938775, -0.5198837785714285, -0.6908982142857143, -0.4221612581632652, -0.38014059183673465, 
20, 1.1853811854104754, 0.9097966367346938, 1.1355356295918366, 1.277233337755102, 1.0368358846938774, 0.8150057887755101, 0.8150057887755101, 0.8042563224489795, 0.8042563224489795, 0.7983929765306123, 0.7944840795918366, 0.7944840795918366, 0.7905751836734694, 0.8140285642857142, 0.8765710132653061, 0.8834115826530612, 0.8746165642857142, 0.8589809765306121, 0.8492086367346937, 0.9146827581632652, 1.032926987755102, 1.009473606122449, 1.009473606122449, 1.269415543877551, 1.269415543877551, 1.3387984642857143, 1.248893737755102, 1.248893737755102, 1.0299953153061223, 0.8550720795918366, 0.9899291214285714, 1.2625749744897958, 1.3788647551020408, 1.2264175806122448, 1.0788566234693877, 0.9664757397959183, 0.885366030612245, 0.8335730489795917, 0.7876435102040815, 0.7280327836734694, 0.7172832683673469, 0.6899209897959183, 0.723146613265306, 0.784711837755102, 0.770053425510204, 0.770053425510204, 0.7612584071428571, 0.8540948561224488, 0.9723390846938774, 1.032926987755102, 1.1140366959183674, 0.13974319897959184, 0.08013246632653061, -0.02247617857142857, 0.03127120612244898, -0.01759005306122449, -0.01759005306122449, -0.14267487142857144, -0.14267487142857144, -0.15537879897959184, -0.07329189081632653, -0.07329189081632653, -0.052770157142857134, -0.004886125510204081, 0.05961073877551021, 0.08013246632653061, 0.04983848469387755, 0.03713455714285714, -0.011726702040816326, -0.09576806632653061, -0.23355681020408162, 0.029316754081632652, 0.029316754081632652, -0.0283395306122449, -0.0283395306122449, -0.22964791326530612, 0.28730419183673467, 0.28730419183673467, 0.21792122346938775, -0.09479084183673468, -0.13387985408163267, -0.03029398163265306, 0.050815709183673466, 0.03811178163265306, 0.050815709183673466, 0.036157332653061224, 0.07817801122448978, 0.10749477551020407, 0.10554031428571427, 0.10651755102040815, 0.10260864183673468, 0.0674285387755102, 0.025407854081632653, -0.008795026530612244, -0.03029398163265306, -0.03029398163265306, -0.03908900612244898, -0.003908901020408162, 0.07231466632653061, 0.10260864183673468, 0.09381361734693877, -0.38014059183673465, -0.38893563367346934, -0.4241157061224489, -0.34398327040816323, -0.15537879897959184, -0.15537879897959184, -0.14462933265306122, -0.14462933265306122, -0.1905589081632653, -0.10944922346938774, -0.10944922346938774, -0.04104345714285714, 0.009772251020408162, 0.04104345714285714, 0.032248430612244895, -0.005863351020408163, -0.04983848469387755, -0.02052172857142857, 0.05765628469387755, 0.0244306306122449, 0.1719916357142857, 0.1719916357142857, 0.28925866530612243, 0.28925866530612243, -0.011726702040816326, -0.4182523612244898, -0.4182523612244898, -0.5335649663265306, -0.3048942530612245, -0.2980536826530612, -0.315643743877551, -0.3478921673469388, -0.2198756714285714, -0.1475610051020408, -0.12019870204081631, -0.11922147857142856, -0.11433534489795917, -0.12899372040816326, -0.11726701734693877, -0.10749477551020407, -0.06938298775510203, -0.06840576326530612, -0.06547408469387754, -0.0244306306122449, -0.0244306306122449, 0.0009772255102040816, 0.00195445, -0.036157332653061224, -0.061565187755102044, -0.1153125693877551, 
21, 1.2310695204220061, 1.0993783326530613, 1.1971008530612244, 1.6319660265306122, 1.6319660265306122, 1.6202393357142855, 1.0554032418367347, 0.7358505775510203, 0.8150057887755101, 0.9977469153061225, 1.2283720285714286, 1.1941691806122448, 0.9606123938775509, 0.8814571336734693, 0.8052335469387755, 0.8062107704081631, 0.809142443877551, 0.8052335469387755, 0.8032790979591836, 0.8052335469387755, 0.792529631632653, 0.8384591704081633, 0.853117631632653, 0.8667987704081632, 0.86191265, 0.86191265, 0.9049105153061223, 1.025109193877551, 1.0866744173469387, 1.076902175510204, 1.2303264775510203, 1.3857053255102039, 1.3436845857142856, 1.1365128540816325, 1.1365128540816325, 0.9234777765306121, 0.9244549999999999, 1.1521485387755102, 1.3993864642857141, 1.1511713142857143, 1.1511713142857143, 1.0495397999999998, 0.9137055336734693, 0.8257552551020407, 0.7876435102040815, 0.7280327836734694, 0.7280327836734694, 0.7290100081632653, 0.7251010622448979, 0.7534406132653061, 0.7964385285714285, -0.10749477551020407, -0.0752463387755102, 0.18665001122448976, 0.18665001122448976, -0.5433372091836735, -0.22378456836734695, 0.13974319897959184, 0.17296885918367347, 0.046906809183673466, -0.07231466632653061, -0.03713455714285714, 0.04886126020408163, -0.003908901020408162, -0.06449686020408163, -0.10847199897959184, -0.10260864183673468, -0.0869730418367347, -0.08599581734693877, -0.07231466632653061, -0.012703927551020408, 0.05961073877551021, 0.04104345714285714, 0.025407854081632653, -0.03127120612244898, -0.03127120612244898, -0.10651755102040815, -0.13192540510204082, -0.05667906020408162, -0.01856727857142857, -0.036157332653061224, -0.1153125693877551, 0.34398327040816323, 0.25896466530612244, 0.25896466530612244, 0.0244306306122449, -0.0283395306122449, -0.061565187755102044, -0.03713455714285714, 0.05472461224489796, 0.05472461224489796, 0.08110969081632652, 0.05179293265306122, 0.06645131428571427, 0.08795026632653061, 0.11922147857142856, 0.11922147857142856, 0.09283639387755102, 0.07133743571428572, 0.004886125510204081, -0.06840576326530612, 0.2267162408163265, 0.3703683489795918, -0.14560655714285714, -0.14560655714285714, -0.45050080918367347, -0.4661363969387755, -0.4954531724489796, -0.3303021071428571, -0.36255053061224485, -0.3908900826530612, -0.3342110040816326, -0.2980536826530612, -0.20424005918367344, -0.1485382295918367, -0.1592877081632653, -0.14560655714285714, -0.14462933265306122, -0.10163141734693877, -0.03127120612244898, 0.003908901020408162, 0.005863351020408163, -0.01368115306122449, -0.01563560306122449, 0.023453404081632653, 0.023453404081632653, 0.05765628469387755, 0.023453404081632653, 0.07329189081632653, 0.12997094489795916, 0.30880314999999997, 0.03029398163265306, -0.29316756224489793, -0.4172751367346938, -0.4172751367346938, -0.5364966387755102, -0.35277828877551015, -0.3146665193877551, -0.34105159795918366, -0.20326283469387754, -0.20326283469387754, -0.11726701734693877, -0.0830641387755102, -0.10456308979591837, -0.13778875102040813, -0.15537879897959184, -0.15537879897959184, -0.1348570775510204, -0.06938298775510203, -0.04788403265306122, -0.07231466632653061, 
22, 1.2015323543269127, 0.7964385285714285, 0.7964385285714285, 0.7876435102040815, 0.8120741163265306, 0.8824343581632652, 0.991883569387755, 1.109150575510204, 1.061266587755102, 1.1218544897959182, 1.18439693877551, 1.2283720285714286, 1.501017881632653, 1.6837589112244897, 1.3065500653061224, 0.5570183479591837, 0.7348733530612245, 1.1052416785714285, 1.3788647551020408, 1.2039414234693877, 0.9576807214285713, 0.8912293765306121, 0.8912293765306121, 0.8755937887755102, 0.8218463581632652, 0.7729850979591837, 0.7895979591836734, 0.770053425510204, 0.7612584071428571, 0.8140285642857142, 0.8472541887755102, 0.8286869285714286, 0.8384591704081633, 0.8941610489795917, 0.9694074122448979, 1.0358586602040816, 1.0808110724489794, 1.0808110724489794, 1.3661608408163264, 1.3661608408163264, 1.5059040030612243, 1.240098719387755, 0.9664757397959183, 0.8492086367346937, 0.8824343581632652, 1.0974238846938775, 1.3778875316326529, 1.3964547918367347, 1.032926987755102, 1.032926987755102, 0.9273866734693877, -0.06840576326530612, -0.08110969081632652, -0.061565187755102044, -0.032248430612244895, 0.05961073877551021, 0.12215315102040816, 0.08208691428571428, -0.02247617857142857, -0.09088194489795919, -0.023453404081632653, 0.08208691428571428, 0.20326283469387754, -0.38991285816326526, -0.4817720336734694, 0.03811178163265306, 0.19837671428571427, 0.03908900612244898, -0.07231466632653061, -0.007817801020408162, 0.009772251020408162, -0.08110969081632652, -0.08110969081632652, -0.12997094489795916, -0.11628979285714285, -0.0635196357142857, -0.06058796326530612, -0.05374738775510204, -0.016612828571428567, 0.050815709183673466, 0.050815709183673466, 0.04788403265306122, 0.03908900612244898, -0.03420288163265306, -0.13681152653061224, -0.12313037551020409, -0.02052172857142857, -0.02052172857142857, -0.1837183387755102, -0.1837183387755102, 0.1807866530612245, 0.36743667653061224, 0.011726702040816326, -0.06547408469387754, -0.11922147857142856, -0.07915524183673468, 0.02052172857142857, 0.07720078775510204, 0.050815709183673466, 0.050815709183673466, 0.0635196357142857, -0.07231466632653061, -0.03908900612244898, 0.004886125510204081, -0.0029316755102040816, -0.032248430612244895, -0.01856727857142857, -0.032248430612244895, 0.07426911428571428, 0.23062513775510204, 0.36255053061224485, 0.36743667653061224, -0.02052172857142857, -0.5404055357142857, -0.5374738632653061, -0.4905670520408163, -0.3987078765306122, -0.3224843132653061, -0.3830722642857143, -0.34398327040816323, -0.292190337755102, -0.14267487142857144, -0.14267487142857144, -0.14365209591836733, -0.15342435102040816, -0.15733325918367347, -0.11140367244897958, -0.04397513265306122, -0.0009772255102040816, 0.02052172857142857, 0.004886125510204081, 0.01954450306122449, 0.06254241224489795, 0.09283639387755102, 0.01759005306122449, -0.016612828571428567, 0.23257958673469384, 0.23257958673469384, 0.1876272357142857, 0.1876272357142857, -0.11433534489795917, -0.346914943877551, -0.5247698999999999, -0.5286788448979591, -0.3478921673469388, -0.32639321020408163, -0.3224843132653061, -0.30391702857142855, -0.15342435102040816, -0.15342435102040816, -0.12117592653061224, 
23, 1.1821877139330526, 0.8189146857142857, 0.7964385285714285, 0.747577268367347, 0.7417139224489795, 0.7260783346938775, 0.7544178377551021, 0.8101196673469387, 0.7944840795918366, 0.7808029408163265, 0.783734613265306, 0.8843888071428571, 1.09156053877551, 1.09156053877551, 1.0065419336734693, 1.1003555571428572, 1.1912375081632653, 1.3133906346938775, 1.4961317612244898, 1.6124215418367347, 1.1863513867346938, 0.6430141775510204, 0.7974157530612244, 1.2625749744897958, 1.2625749744897958, 1.3485707071428572, 1.0055647091836732, 0.8882977040816326, 0.840413619387755, 0.8296641520408163, 0.7974157530612244, 0.7622356316326531, 0.7426911469387755, 0.7690762010204081, 0.7886207346938775, 0.8521404071428571, 0.8843888071428571, 0.8667987704081632, 0.8892749275510203, 0.8892749275510203, 1.0045874846938774, 1.0045874846938774, 1.0563804663265306, 1.177556368367347, 1.177556368367347, 1.3466162581632652, 1.3466162581632652, 1.333912343877551, 0.8550720795918366, 0.8550720795918366, 0.8882977040816326, 0.12703927244897958, 0.12703927244897958, 0.05667906020408162, 0.033225657142857135, 0.036157332653061224, 0.003908901020408162, -0.012703927551020408, -0.03518010612244898, -0.03908900612244898, -0.03713455714285714, 0.04886126020408163, 0.08501859387755101, 0.08501859387755101, -0.03713455714285714, -0.09283639387755102, -0.01954450306122449, 0.20326283469387754, 0.05863350918367346, -0.45147803367346934, -0.3918673071428571, -0.010749477551020407, 0.19739948979591834, 0.021498954081632653, 0.021498954081632653, -0.04983848469387755, 0.033225657142857135, -0.04495235714285714, -0.04202068163265306, -0.12508482346938776, -0.15342435102040816, -0.11922147857142856, -0.09576806632653061, -0.08501859387755101, -0.04202068163265306, 0.03811178163265306, 0.07231466632653061, 0.07329189081632653, 0.004886125510204081, 0.004886125510204081, -0.1710144112244898, -0.1710144112244898, -0.08795026632653061, 0.05374738775510204, 0.05374738775510204, -0.11140367244897958, -0.11140367244897958, 0.2980536826530612, -0.040066232653061216, -0.040066232653061216, -0.1475610051020408, -0.12899372040816326, -0.13974319897959184, -0.12117592653061224, -0.08990471428571428, -0.07426911428571428, -0.061565187755102044, -0.05472461224489796, -0.01856727857142857, 0.02247617857142857, 0.010749477551020407, -0.02736230612244898, -0.06058796326530612, -0.06058796326530612, 0.050815709183673466, 0.23453403469387754, 0.36743667653061224, 0.292190337755102, -0.10847199897959184, -0.5364966387755102, -0.5697222632653061, -0.5169521061224489, -0.323461537755102, -0.37134557346938774, -0.37134557346938774, -0.38014059183673465, -0.2970764591836734, -0.21401232653061222, -0.1514699020408163, -0.15537879897959184, -0.1719916357142857, -0.18860445918367344, -0.1514699020408163, -0.08990471428571428, -0.02736230612244898, 0.01954450306122449, 0.01368115306122449, 0.0244306306122449, 0.04788403265306122, 0.04788403265306122, 0.016612828571428567, 0.016612828571428567, 0.03908900612244898, 0.21792122346938775, 0.21792122346938775, -0.09674529081632652, -0.09674529081632652, -0.30880314999999997, -0.37916336734693873, -0.37916336734693873, -0.3127120469387755, 
24, 1.2033783168799563, 0.8882977040816326, 1.1677841265306121, 1.4023181367346937, 1.2987322714285712, 1.1912375081632653, 1.009473606122449, 0.9029560673469387, 0.8335730489795917, 0.7886207346938775, 0.7886207346938775, 0.7514861653061223, 0.7514861653061223, 0.7358505775510203, 0.7690762010204081, 0.8482314132653062, 0.8335730489795917, 0.7544178377551021, 0.7544178377551021, 0.8443225163265304, 1.0104508306122448, 1.1550802112244896, 1.0671299326530612, 1.0671299326530612, 1.1384673020408163, 1.4433615551020407, 1.706235263265306, 1.3280489979591836, 0.784711837755102, 0.8189146857142857, 1.0212002969387755, 1.1677841265306121, 0.9987241397959183, 0.9987241397959183, 0.9088194122448979, 0.9205461030612245, 0.9029560673469387, 0.8931838244897958, 0.8677759948979591, 0.7905751836734694, 0.776894043877551, 0.7661445285714286, 0.7749395469387754, 0.816960237755102, 0.8540948561224488, 0.868753219387755, 0.8628898734693877, 0.8755937887755102, 0.9909063459183672, 0.9909063459183672, 1.0466081265306122, -0.1475610051020408, -0.032248430612244895, 0.02052172857142857, 0.0283395306122449, 0.012703927551020408, 0.009772251020408162, 0.05179293265306122, 0.08501859387755101, 0.1387659744897959, 0.1387659744897959, 0.03420288163265306, 0.03420288163265306, 0.023453404081632653, 0.02736230612244898, 0.01954450306122449, 0.003908901020408162, -0.01759005306122449, -0.01759005306122449, 0.04397513265306122, 0.10651755102040815, 0.06058796326530612, -0.14072042346938773, -0.14072042346938773, -0.05765628469387755, 0.05863350918367346, -0.2061945081632653, -0.2316023622448979, 0.1153125693877551, 0.1671055020408163, -0.033225657142857135, -0.10651755102040815, 0.02736230612244898, 0.02736230612244898, 0.010749477551020407, -0.046906809183673466, -0.12117592653061224, -0.14462933265306122, -0.10847199897959184, -0.07231466632653061, -0.08501859387755101, -0.0830641387755102, -0.0752463387755102, -0.025407854081632653, 0.003908901020408162, 0.023453404081632653, 0.011726702040816326, -0.016612828571428567, -0.12117592653061224, -0.12117592653061224, -0.04397513265306122, -0.3127120469387755, -0.3371426765306122, -0.3557099612244898, -0.3019625795918367, -0.2521240959183673, -0.1798094295918367, -0.15733325918367347, -0.15244712653061224, -0.13974319897959184, -0.13974319897959184, -0.11335812040816325, -0.11335812040816325, -0.07622356326530612, -0.052770157142857134, -0.06645131428571427, -0.06254241224489795, 0.005863351020408163, 0.005863351020408163, 0.02736230612244898, 0.004886125510204081, -0.05667906020408162, 0.1485382295918367, 0.1485382295918367, 0.21792122346938775, -0.04202068163265306, -0.43486522142857137, -0.33909714999999996, -0.37134557346938774, -0.3508238408163265, -0.3605960826530612, -0.4006623244897959, -0.29316756224489793, -0.29316756224489793, -0.24919242244897957, -0.14951545408163264, -0.14267487142857144, -0.15733325918367347, -0.1778549806122449, -0.1778549806122449, -0.15342435102040816, -0.09674529081632652, -0.07231466632653061, -0.032248430612244895, -0.008795026530612244, -0.00195445, 0.02052172857142857, 0.016612828571428567, 0.05667906020408162, 0.05667906020408162, 0.08404136326530612, 
25, 1.226609379278005, 1.1453078714285714, 1.3622519438775509, 1.3622519438775509, 1.2801650102040816, 0.9830885520408164, 0.9742935336734694, 0.9742935336734694, 1.4971089846938774, 1.4971089846938774, 1.3358667918367346, 1.0339042122448978, 1.0339042122448978, 0.8931838244897958, 0.8931838244897958, 0.8374819459183672, 0.747577268367347, 0.7202149408163264, 0.6811259714285713, 0.6596269897959184, 0.6967615591836734, 0.7544178377551021, 0.7495317163265305, 0.7514861653061223, 0.7514861653061223, 0.8452997397959183, 1.0202230724489796, 1.2010097499999999, 1.0739705030612245, 1.085697193877551, 1.1277178357142856, 1.3749558581632653, 1.6534649591836734, 0.9195688795918366, 0.9195688795918366, 0.7407366989795918, 0.9567034969387754, 1.1228317142857143, 1.291891701020408, 0.9469311581632651, 0.9469311581632651, 0.9586579459183673, 0.9381361397959184, 0.9127283091836734, 0.8492086367346937, 0.7221693897959183, 0.7221693897959183, 0.6850348683673468, 0.6996932326530613, 0.7641900806122449, 0.832595825510204, 0.04397513265306122, -0.07133743571428572, -0.07133743571428572, 0.269714156122449, 0.1387659744897959, -0.08110969081632652, -0.08110969081632652, -0.016612828571428567, -0.016612828571428567, -0.008795026530612244, 0.025407854081632653, 0.025407854081632653, 0.08404136326530612, 0.08404136326530612, 0.10944922346938774, 0.03713455714285714, 0.00195445, 0.02247617857142857, 0.026385078571428567, 0.003908901020408162, 0.010749477551020407, -0.00195445, -0.06058796326530612, -0.06058796326530612, -0.007817801020408162, 0.0703602112244898, 0.10456308979591837, -0.012703927551020408, -0.21694399897959182, -0.09772252040816326, 0.19935393775510202, -0.01954450306122449, -0.042997909183673466, -0.042997909183673466, 0.10554031428571427, 0.05472461224489796, -0.04886126020408163, -0.07622356326530612, 0.025407854081632653, 0.025407854081632653, -0.05570183571428571, -0.07329189081632653, -0.1153125693877551, -0.12703927244897958, -0.08110969081632652, -0.08110969081632652, -0.1387659744897959, -0.13192540510204082, -0.08404136326530612, -0.02247617857142857, 0.3254159857142857, -0.05863350918367346, -0.05863350918367346, -0.38991285816326526, -0.5267243969387755, -0.39382175510204076, -0.39382175510204076, -0.3576644102040816, -0.3576644102040816, -0.2570102163265306, -0.1671055020408163, -0.1671055020408163, -0.14267487142857144, -0.14267487142857144, -0.1592877081632653, -0.16124215612244897, -0.15342435102040816, -0.1348570775510204, -0.08501859387755101, -0.05179293265306122, -0.061565187755102044, -0.03908900612244898, 0.0244306306122449, 0.0244306306122449, 0.0283395306122449, 0.0029316755102040816, -0.09479084183673468, -0.023453404081632653, 0.23746570714285714, 0.39284453061224484, 0.35277828877551015, -0.050815709183673466, -0.46515917244897953, -0.46515917244897953, -0.44366023979591834, -0.346914943877551, -0.4260702040816326, -0.4583186030612244, -0.2560329928571428, -0.2560329928571428, -0.15635602346938776, -0.09479084183673468, -0.10554031428571427, -0.12313037551020409, -0.14462933265306122, -0.14462933265306122, -0.09772252040816326, -0.0703602112244898, -0.02247617857142857, 0.01759005306122449, 
26, 1.169431399242003, 0.832595825510204, 0.8355274979591836, 0.8208691346938775, 0.8247780316326531, 1.0573576908163265, 1.0573576908163265, 1.1384673020408163, 1.051494344897959, 1.0993783326530613, 1.2498709622448978, 1.3505251551020407, 1.3749558581632653, 1.2195770112244897, 0.8863432551020408, 0.7524633897959183, 1.3866825489795918, 1.3866825489795918, 1.5000406581632653, 1.3045956163265306, 1.0055647091836732, 1.0055647091836732, 0.9176144306122449, 0.8296641520408163, 0.7553950622448979, 0.6899209897959183, 0.6527864204081633, 0.6381280571428571, 0.6596269897959184, 0.7280327836734694, 0.7583267346938775, 0.747577268367347, 0.8394363948979592, 0.8394363948979592, 1.1111050234693878, 1.1111050234693878, 1.1150139204081633, 1.1443306479591837, 1.1853741622448979, 1.592877057142857, 1.8225249469387754, 1.3260945499999999, 0.6606042142857143, 0.9156599826530613, 1.1238089387755101, 1.260620525510204, 1.1501939928571427, 0.9185916551020408, 0.8247780316326531, 0.8247780316326531, 0.8140285642857142, -0.02247617857142857, 0.06254241224489795, 0.06840576326530612, 0.05374738775510204, -0.20326283469387754, -0.20326283469387754, -0.18567278673469387, -0.004886125510204081, 0.12606204795918366, -0.012703927551020408, -0.2267162408163265, 0.021498954081632653, 0.38014059183673465, 0.2198756714285714, -0.03518010612244898, -0.15635602346938776, -0.15635602346938776, -0.010749477551020407, 0.09674529081632652, 0.011726702040816326, 0.011726702040816326, 0.026385078571428567, 0.06058796326530612, 0.10651755102040815, 0.07817801122448978, 0.021498954081632653, 0.008795026530612244, 0.01759005306122449, 0.02247617857142857, 0.011726702040816326, -0.005863351020408163, 0.02247617857142857, 0.02247617857142857, 0.09674529081632652, 0.09674529081632652, -0.03908900612244898, -0.1661282775510204, -0.012703927551020408, 0.24528352551020408, -0.37330002244897953, -0.30391702857142855, 0.13192540510204082, 0.12117592653061224, -0.04886126020408163, -0.09088194489795919, 0.05667906020408162, 0.12410759897959182, -0.07817801122448978, -0.07817801122448978, -0.15342435102040816, 0.01759005306122449, 0.05961073877551021, 0.05179293265306122, 0.05179293265306122, 0.042997909183673466, 0.042997909183673466, 0.0009772255102040816, 0.14462933265306122, 0.30000813163265305, 0.3742772459183673, 0.2061945081632653, -0.22573901632653057, -0.4671136214285714, -0.6234696448979592, -0.2882814408163265, -0.3244387612244898, -0.3244387612244898, -0.3987078765306122, -0.261896337755102, -0.17003718673469387, -0.17003718673469387, -0.1514699020408163, -0.15831048367346937, -0.1661282775510204, -0.14951545408163264, -0.10944922346938774, -0.09088194489795919, -0.0752463387755102, -0.061565187755102044, -0.029316754081632652, -0.02247617857142857, 0.03029398163265306, 0.03029398163265306, -0.06058796326530612, -0.06058796326530612, -0.006840576530612245, 0.2716686040816326, 0.3576644102040816, -0.01954450306122449, -0.6097885051020407, -0.4290018765306122, -0.39382175510204076, -0.43291077346938767, -0.3957762040816326, -0.46515917244897953, -0.4055484459183673, -0.2912131132653061, -0.13192540510204082, -0.13192540510204082, -0.13387985408163267, 
27, 1.3014297451885557, 0.7798257163265305, 0.729987231632653, 0.729987231632653, 0.747577268367347, 0.8433452918367346, 0.8433452918367346, 0.8423680673469387, 0.8423680673469387, 0.8716848918367347, 0.9694074122448979, 0.9694074122448979, 1.0827655204081632, 1.083742744897959, 1.1306495081632653, 1.2273948051020407, 1.416976501020408, 1.4374982091836732, 0.7612584071428571, 0.7612584071428571, 1.3515024765306123, 1.3515024765306123, 1.2928689255102042, 1.2928689255102042, 1.1140366959183674, 1.007519157142857, 0.8179374612244898, 0.8179374612244898, 0.6821031959183673, 0.6821031959183673, 0.6097885051020407, 0.6693992326530611, 0.6693992326530611, 0.8032790979591836, 0.8707076673469386, 0.8316186010204081, 0.7856890622448979, 0.793506856122449, 0.900024394897959, 1.0964466602040814, 1.1638752295918366, 1.1638752295918366, 1.2381442714285713, 1.284073907142857, 1.4081814826530612, 1.540106851020408, 1.4883139673469385, 0.7915524071428571, 0.9371589153061223, 0.9371589153061223, 1.2049186469387754, -0.12703927244897958, -0.07915524183673468, -0.07915524183673468, -0.05667906020408162, 0.006840576530612245, 0.006840576530612245, 0.026385078571428567, 0.026385078571428567, -0.004886125510204081, -0.1788322051020408, -0.1788322051020408, -0.17003718673469387, -0.05472461224489796, 0.0635196357142857, 0.007817801020408162, -0.05961073877551021, 0.3459377193877551, -0.10944922346938774, -0.10944922346938774, -0.02247617857142857, -0.02247617857142857, 0.05179293265306122, 0.05179293265306122, 0.05863350918367346, 0.036157332653061224, 0.0752463387755102, 0.0752463387755102, 0.11238089591836734, 0.11238089591836734, 0.07817801122448978, -0.02736230612244898, -0.02736230612244898, -0.032248430612244895, -0.04886126020408163, -0.06840576326530612, -0.07231466632653061, -0.04104345714285714, 0.07720078775510204, 0.036157332653061224, -0.10847199897959184, -0.10847199897959184, -0.12606204795918366, 0.021498954081632653, 0.19446781734693877, -0.16124215612244897, -0.4387741183673469, -0.07133743571428572, 0.07817801122448978, 0.07817801122448978, -0.01759005306122449, -0.17003718673469387, -0.09088194489795919, -0.09088194489795919, -0.029316754081632652, 0.010749477551020407, 0.010749477551020407, 0.01759005306122449, 0.01759005306122449, 0.01563560306122449, 0.07622356326530612, 0.07622356326530612, 0.050815709183673466, 0.12801649591836733, 0.26287358673469385, 0.2316023622448979, -0.21205785306122446, -0.5071798632653061, -0.38991285816326526, -0.38991285816326526, -0.346914943877551, -0.346914943877551, -0.30000813163265305, -0.30000813163265305, -0.1798094295918367, -0.12606204795918366, -0.12117592653061224, -0.12117592653061224, -0.1348570775510204, -0.1348570775510204, -0.1710144112244898, -0.05472461224489796, -0.05472461224489796, 0.003908901020408162, 0.01368115306122449, 0.003908901020408162, -0.007817801020408162, 0.011726702040816326, -0.05667906020408162, -0.03420288163265306, 0.18176388979591837, 0.18176388979591837, 0.26873693163265305, 0.35668718571428565, 0.16319660510204081, -0.38209503979591836, -0.5589727969387756, -0.37232279795918366, -0.315643743877551, -0.315643743877551, -0.37623169489795916, 
28, 1.2311410699823835, 1.2049186469387754, 1.3563885979591837, 1.0964466602040814, 0.9371589153061223, 0.8540948561224488, 0.8540948561224488, 0.8345502734693876, 0.7993702010204081, 0.7583267346938775, 0.747577268367347, 0.7553950622448979, 0.792529631632653, 0.816960237755102, 0.816960237755102, 0.8042563224489795, 0.8042563224489795, 0.9273866734693877, 1.0368358846938774, 1.0387903326530612, 1.0387903326530612, 1.324140101020408, 1.324140101020408, 1.4052498102040816, 1.2420531683673468, 1.1433534234693878, 0.9215233275510204, 0.8882977040816326, 1.168761351020408, 1.501017881632653, 1.4511794459183671, 1.1931919561224489, 1.0593121387755102, 0.968430187755102, 0.9215233275510204, 0.7407366989795918, 0.7407366989795918, 0.6391052806122448, 0.6469230744897958, 0.6576725418367346, 0.792529631632653, 0.792529631632653, 0.8071879948979591, 0.8071879948979591, 0.7749395469387754, 0.8804799102040817, 1.0280408663265306, 1.1111050234693878, 1.1179455928571427, 1.1413989744897959, 1.2342353744897958, -0.01759005306122449, -0.04495235714285714, 0.04592958469387755, 0.0009772255102040816, -0.11433534489795917, -0.11433534489795917, -0.14560655714285714, -0.1035858663265306, -0.09576806632653061, -0.10944922346938774, -0.08501859387755101, -0.03420288163265306, 0.07622356326530612, 0.07622356326530612, 0.008795026530612244, 0.008795026530612244, -0.14365209591836733, -0.2267162408163265, 0.04886126020408163, 0.04886126020408163, -0.10065419285714286, -0.10065419285714286, -0.07426911428571428, 0.3254159857142857, 0.25896466530612244, 0.08795026632653061, -0.04104345714285714, -0.014658377551020408, 0.03127120612244898, -0.0009772255102040816, -0.010749477551020407, 0.006840576530612245, 0.01368115306122449, 0.01954450306122449, 0.03420288163265306, 0.03420288163265306, -0.0009772255102040816, 0.003908901020408162, -0.03420288163265306, -0.009772251020408162, -0.009772251020408162, -0.02247617857142857, -0.02247617857142857, -0.05863350918367346, 0.04592958469387755, 0.09869974489795917, 0.02736230612244898, -0.11726701734693877, -0.07133743571428572, 0.08892749081632653, -0.37623169489795916, -0.39382175510204076, -0.292190337755102, -0.23453403469387754, -0.16905996224489794, -0.16905996224489794, -0.1807866530612245, -0.18176388979591837, -0.14560655714285714, -0.09576806632653061, -0.025407854081632653, 0.01856727857142857, 0.03029398163265306, 0.03029398163265306, 0.05765628469387755, 0.05765628469387755, 0.03713455714285714, 0.0029316755102040816, 0.1934905806122449, 0.1934905806122449, 0.26482803469387756, 0.26482803469387756, -0.03811178163265306, -0.26482803469387756, -0.34007437346938774, -0.44072856734693877, -0.3185754163265306, -0.3488693918367347, -0.3508238408163265, -0.3107575979591837, -0.1876272357142857, -0.15244712653061224, -0.13387985408163267, -0.14365209591836733, -0.13094816938775508, -0.13094816938775508, -0.12019870204081631, -0.0830641387755102, -0.06254241224489795, -0.0283395306122449, -0.0283395306122449, 0.014658377551020408, 0.014658377551020408, 0.10065419285714286, 0.11238089591836734, 0.023453404081632653, 0.009772251020408162, 0.16905996224489794, 0.300985356122449, 0.2667824836734694, 
29, 1.2570176488636713, 1.4648605857142856, 1.5655147785714285, 1.1374900775510204, 0.775916819387755, 0.8834115826530612, 1.241075943877551, 1.241075943877551, 1.3065500653061224, 1.0632210357142855, 1.0368358846938774, 0.9977469153061225, 0.9537718244897959, 0.8023018734693877, 0.8023018734693877, 0.7661445285714286, 0.7436683714285713, 0.747577268367347, 0.7915524071428571, 0.7788484928571427, 0.7329189051020407, 0.7280327836734694, 0.7876435102040815, 0.9997013632653061, 1.1453078714285714, 1.1638752295918366, 1.1589891081632653, 1.2000325265306122, 1.3427073612244897, 1.454111118367347, 1.166806902040816, 0.869730443877551, 1.1648524540816327, 1.3661608408163264, 1.3661608408163264, 1.1345584051020408, 0.9723390846938774, 0.9078421887755102, 0.8150057887755101, 0.7641900806122449, 0.7417139224489795, 0.7026249051020408, 0.747577268367347, 0.7905751836734694, 0.8257552551020407, 0.8345502734693876, 0.7944840795918366, 0.7495317163265305, 0.8970927214285714, 0.8970927214285714, 0.9840657755102039, 0.07329189081632653, -0.15537879897959184, -0.1719916357142857, -0.08110969081632652, 0.032248430612244895, -0.052770157142857134, -0.052770157142857134, 0.06547408469387754, 0.1485382295918367, 0.0029316755102040816, -0.06058796326530612, -0.11726701734693877, -0.11238089591836734, -0.11238089591836734, -0.07720078775510204, -0.0830641387755102, -0.0674285387755102, -0.06058796326530612, -0.03029398163265306, 0.0244306306122449, 0.025407854081632653, -0.023453404081632653, -0.14951545408163264, -0.14951545408163264, -0.0009772255102040816, 0.01856727857142857, -0.10260864183673468, 0.06254241224489795, 0.4172751367346938, 0.2198756714285714, -0.0869730418367347, -0.09772252040816326, 0.04592958469387755, 0.04592958469387755, 0.0869730418367347, 0.0752463387755102, 0.04202068163265306, 0.05374738775510204, 0.0830641387755102, 0.11726701734693877, 0.0869730418367347, 0.05472461224489796, 0.03029398163265306, -0.003908901020408162, -0.02247617857142857, -0.01954450306122449, 0.006840576530612245, 0.04983848469387755, 0.04983848469387755, 0.06254241224489795, -0.1544015744897959, -0.4983848459183673, -0.25310131938775504, -0.2472379744897959, -0.2658052591836735, -0.38404948877551015, -0.38404948877551015, -0.2970764591836734, -0.19739948979591834, -0.14951545408163264, -0.11335812040816325, -0.1348570775510204, -0.14462933265306122, -0.14462933265306122, -0.11433534489795917, -0.052770157142857134, -0.03420288163265306, -0.01563560306122449, -0.011726702040816326, 0.05374738775510204, 0.1035858663265306, 0.16515105306122446, 0.0869730418367347, 0.04202068163265306, 0.13974319897959184, 0.24137462857142855, 0.10065419285714286, -0.3576644102040816, -0.6342191602040816, -0.3127120469387755, -0.0918591693877551, -0.25896466530612244, -0.23746570714285714, -0.23746570714285714, -0.0830641387755102, -0.03811178163265306, -0.04983848469387755, -0.06938298775510203, -0.07720078775510204, -0.10065419285714286, -0.09576806632653061, -0.061565187755102044, -0.02736230612244898, 0.0029316755102040816, 0.0244306306122449, 0.04886126020408163, 0.07231466632653061, 0.040066232653061216, 0.040066232653061216, 0.02052172857142857, 
30, 1.270027762294282, 1.0270636418367347, 1.0231547448979592, 1.0387903326530612, 1.0905833142857142, 1.5518336397959183, 1.5518336397959183, 1.7345747653061225, 1.3212084285714285, 0.6029479357142856, 0.6977387836734694, 1.124786163265306, 1.3788647551020408, 1.2567116285714284, 0.9488856061224489, 0.9488856061224489, 0.9049105153061223, 0.8462769642857142, 0.792529631632653, 0.7524633897959183, 0.7211921653061224, 0.7426911469387755, 0.770053425510204, 0.8179374612244898, 0.8159830132653061, 0.8159830132653061, 0.823800807142857, 0.8374819459183672, 0.9166372061224488, 1.1443306479591837, 1.1443306479591837, 1.248893737755102, 1.248893737755102, 1.3876597734693876, 1.1550802112244896, 1.1550802112244896, 1.061266587755102, 1.061266587755102, 1.3583430469387754, 1.2743016653061223, 1.2743016653061223, 1.0827655204081632, 0.9654985153061224, 0.86191265, 0.8003474255102041, 0.7270555591836735, 0.6791715234693877, 0.6342191602040816, 0.6410597295918367, 0.7045793530612244, 0.7368278020408163, 0.07915524183673468, 0.02736230612244898, -0.06058796326530612, -0.01954450306122449, 0.2970764591836734, 0.2970764591836734, -0.35864163367346935, -0.5032709663265306, -0.07426911428571428, 0.2609191132653061, 0.11433534489795917, -0.0244306306122449, -0.04886126020408163, 0.016612828571428567, 0.016612828571428567, -0.036157332653061224, -0.08501859387755101, -0.09381361734693877, -0.09283639387755102, -0.08795026632653061, -0.0752463387755102, -0.05179293265306122, -0.006840576530612245, 0.014658377551020408, 0.014658377551020408, 0.01954450306122449, -0.04495235714285714, -0.15342435102040816, -0.026385078571428567, -0.026385078571428567, -0.10065419285714286, -0.10065419285714286, 0.01954450306122449, 0.050815709183673466, 0.050815709183673466, -0.17590053265306121, -0.17590053265306121, -0.04592958469387755, 0.12313037551020409, 0.12313037551020409, 0.11726701734693877, 0.046906809183673466, 0.01759005306122449, 0.046906809183673466, 0.06254241224489795, 0.09869974489795917, 0.07426911428571428, 0.05374738775510204, 0.008795026530612244, -0.006840576530612245, -0.02736230612244898, 0.023453404081632653, 0.18958168367346936, 0.3742772459183673, 0.02052172857142857, 0.02052172857142857, -0.6557180928571428, -0.4719997428571428, -0.36255053061224485, -0.19837671428571427, -0.2599418897959183, -0.34007437346938774, -0.27264582857142855, -0.13192540510204082, -0.13192540510204082, -0.09772252040816326, -0.1182442418367347, -0.16026493265306122, -0.1544015744897959, -0.10847199897959184, -0.05179293265306122, -0.0029316755102040816, 0.03713455714285714, 0.03908900612244898, 0.03908900612244898, 0.036157332653061224, 0.008795026530612244, 0.0674285387755102, 0.19251335612244896, 0.19251335612244896, 0.2706913806122449, 0.2706913806122449, -0.3048942530612245, -0.4954531724489796, -0.4954531724489796, -0.323461537755102, -0.323461537755102, -0.3117348224489796, -0.21205785306122446, -0.21205785306122446, -0.11140367244897958, -0.09479084183673468, -0.07329189081632653, -0.0918591693877551, -0.10554031428571427, -0.10847199897959184, -0.08892749081632653, -0.05472461224489796, -0.032248430612244895, -0.01954450306122449, 
31, 1.199438029304904, 0.7534406132653061, 0.7456228193877551, 0.808165219387755, 0.9586579459183673, 1.125763386734694, 1.0905833142857142, 1.0964466602040814, 1.1492167683673469, 1.9270881336734693, 1.9270881336734693, 0.7856890622448979, 0.7856890622448979, 0.7563722867346938, 0.9703846367346938, 1.284073907142857, 1.284073907142857, 1.0163141755102039, 1.0163141755102039, 1.0114280540816327, 0.8804799102040817, 0.8804799102040817, 0.7143515959183673, 0.7143515959183673, 0.6713536806122449, 0.6918754387755102, 0.6918754387755102, 0.7710306499999999, 0.7710306499999999, 0.7710306499999999, 0.775916819387755, 0.8501858612244898, 1.0045874846938774, 1.1052416785714285, 1.1443306479591837, 1.302641168367347, 1.5303346091836734, 1.6358749234693875, 1.3485707071428572, 0.9293411214285714, 0.9156599826530613, 0.8795026857142856, 1.0524715693877549, 1.269415543877551, 1.201986974489796, 1.1394445265306121, 1.0368358846938774, 1.0368358846938774, 0.8482314132653062, 0.8110968918367346, 0.8062107704081631, 0.010749477551020407, 0.008795026530612244, -0.03127120612244898, 0.008795026530612244, 0.07915524183673468, -0.012703927551020408, -0.021498954081632653, 0.016612828571428567, -0.15537879897959184, -0.15537879897959184, 0.07817801122448978, 0.07817801122448978, 0.23355681020408162, 0.01563560306122449, -0.17590053265306121, -0.17590053265306121, 0.21498954999999997, 0.21498954999999997, 0.04202068163265306, -0.11726701734693877, -0.11726701734693877, 0.006840576530612245, 0.006840576530612245, -0.050815709183673466, -0.11140367244897958, -0.11140367244897958, -0.016612828571428567, -0.016612828571428567, 0.005863351020408163, 0.0, -0.0869730418367347, -0.19935393775510202, -0.13192540510204082, 0.0009772255102040816, 0.050815709183673466, 0.03908900612244898, 0.20326283469387754, 0.0869730418367347, -0.21792122346938775, -0.2560329928571428, -0.11628979285714285, 0.3254159857142857, 0.3908900826530612, 0.04592958469387755, -0.24626074999999997, 0.08990471428571428, 0.08990471428571428, 0.13387985408163267, 0.06449686020408163, 0.023453404081632653, -0.012703927551020408, 0.005863351020408163, 0.03811178163265306, 0.03127120612244898, -0.05374738775510204, 0.004886125510204081, 0.2130351020408163, 0.36743667653061224, -0.3703683489795918, -0.3703683489795918, -0.21205785306122446, -0.21205785306122446, -0.23551125918367347, -0.26385081020408163, -0.37232279795918366, -0.37232279795918366, -0.12313037551020409, -0.12313037551020409, -0.03713455714285714, -0.0830641387755102, -0.0830641387755102, -0.10065419285714286, -0.10065419285714286, -0.05961073877551021, 0.010749477551020407, 0.010749477551020407, 0.008795026530612244, 0.008795026530612244, -0.05374738775510204, -0.0674285387755102, -0.010749477551020407, -0.029316754081632652, -0.0009772255102040816, 0.1504926775510204, 0.18860445918367344, -0.005863351020408163, -0.13387985408163267, -0.042997909183673466, -0.11042644795918366, -0.15244712653061224, -0.47102251836734693, -0.43584244591836735, -0.41043456734693873, -0.25407854387755097, -0.19642226530612242, -0.16808272653061224, -0.16808272653061224, -0.12703927244897958, -0.12606204795918366, -0.09381361734693877, 
32, 1.201559022713796, 0.8062107704081631, 0.7172832683673469, 0.6361736081632653, 0.6205379724489796, 0.6654903357142856, 0.7309644561224489, 0.793506856122449, 0.7651673040816326, 0.723146613265306, 0.7651673040816326, 0.8550720795918366, 1.0260864183673468, 1.084719969387755, 1.1736474714285714, 1.2098047683673467, 1.2098047683673467, 1.1980780775510202, 1.1990553020408161, 1.625125457142857, 1.4052498102040816, 0.9645212908163265, 0.5882895724489796, 1.1062189020408162, 1.560628657142857, 1.1433534234693878, 1.1433534234693878, 0.8316186010204081, 0.6908982142857143, 0.6342191602040816, 0.6400825051020408, 0.73878225, 0.7778712683673469, 0.7485544928571428, 0.7485544928571428, 0.7895979591836734, 0.7983929765306123, 0.7983929765306123, 0.8834115826530612, 0.9850429999999999, 1.1228317142857143, 1.1824424897959183, 1.2234859081632652, 1.2185997867346938, 1.3114361857142856, 1.3114361857142856, 1.3065500653061224, 0.9010016183673469, 0.9049105153061223, 1.4443387785714286, 1.649556062244898, 0.023453404081632653, 0.01954450306122449, 0.004886125510204081, 0.06938298775510203, 0.09674529081632652, 0.0918591693877551, 0.05472461224489796, 0.016612828571428567, -0.0029316755102040816, 0.03127120612244898, 0.08013246632653061, 0.05374738775510204, 0.03127120612244898, 0.04202068163265306, 0.21694399897959182, 0.21694399897959182, 0.3254159857142857, 0.2960992346938775, -0.27655472551020405, -1.0280408663265306, -0.5052254153061224, 0.27460027755102034, 0.592198469387755, 0.5110887602040817, -0.34984661632653064, -0.34984661632653064, -0.22769346530612242, -0.23257958673469384, -0.23551125918367347, -0.09381361734693877, -0.07622356326530612, -0.05179293265306122, -0.021498954081632653, -0.021498954081632653, 0.029316754081632652, 0.06058796326530612, 0.06058796326530612, -0.036157332653061224, -0.07720078775510204, 0.033225657142857135, 0.14169764795918366, 0.03420288163265306, -0.2159667744897959, 0.11140367244897958, 0.11140367244897958, 0.5130432091836734, 0.0752463387755102, -0.2785091744897959, -0.24430630204081633, 0.08892749081632653, -0.09381361734693877, -0.0703602112244898, -0.04397513265306122, -0.04104345714285714, -0.008795026530612244, 0.0283395306122449, 0.03713455714285714, 0.05472461224489796, 0.06547408469387754, 0.03811178163265306, 0.007817801020408162, -0.01954450306122449, -0.040066232653061216, 0.08599581734693877, 0.40945734285714286, 0.40945734285714286, 0.45538693061224483, 0.2521240959183673, -0.746600043877551, -0.6654903357142856, -0.868753219387755, -0.3244387612244898, -0.1504926775510204, -0.285349743877551, -0.14169764795918366, -0.14169764795918366, -0.1710144112244898, -0.1544015744897959, -0.1358343020408163, -0.13681152653061224, -0.01856727857142857, 0.012703927551020408, 0.052770157142857134, 0.052770157142857134, -0.0009772255102040816, 0.08013246632653061, 0.08013246632653061, 0.05374738775510204, 0.12215315102040816, 0.1485382295918367, 0.2101034051020408, 0.2550557683673469, 0.2159667744897959, -0.6606042142857143, -0.6606042142857143, -0.776894043877551, -0.36548222857142854, -0.2970764591836734, -0.26385081020408163, -0.26482803469387756, 
33, 1.3092156401050783, 1.0817882969387753, 1.0817882969387753, 0.9342272428571428, 0.9312955704081631, 0.8580037530612245, 0.723146613265306, 0.6645131112244897, 0.6547408683673469, 0.6664675591836734, 0.6908982142857143, 0.7006704561224489, 0.6918754387755102, 0.6879665418367346, 0.7651673040816326, 0.9234777765306121, 1.1003555571428572, 1.1384673020408163, 1.1384673020408163, 1.1550802112244896, 1.4961317612244898, 1.4961317612244898, 1.2049186469387754, 1.2049186469387754, 0.6254240928571428, 1.0720160540816326, 1.0720160540816326, 1.5244712632653061, 1.468769482653061, 1.1541029867346937, 0.9557262734693877, 0.7944840795918366, 0.6996932326530613, 0.6381280571428571, 0.6410597295918367, 0.7182604928571429, 0.7485544928571428, 0.8003474255102041, 0.7407366989795918, 0.7368278020408163, 0.7368278020408163, 0.8277097040816326, 1.024131969387755, 1.169738574489796, 1.1199000418367346, 1.1443306479591837, 1.3602974948979591, 1.3602974948979591, 1.269415543877551, 1.269415543877551, 1.0221775214285713, 0.14072042346938773, 0.14072042346938773, -0.036157332653061224, -0.026385078571428567, 0.07817801122448978, 0.1485382295918367, 0.12997094489795916, 0.06058796326530612, -0.003908901020408162, -0.025407854081632653, -0.026385078571428567, -0.05765628469387755, -0.1182442418367347, -0.09674529081632652, 0.09283639387755102, 0.17296885918367347, -0.2101034051020408, -0.2101034051020408, -0.10065419285714286, 0.26482803469387756, 0.26482803469387756, -0.5267243969387755, -0.5267243969387755, -0.1671055020408163, 0.3303021071428571, 0.3303021071428571, 0.4016395489795918, 0.0703602112244898, -0.16124215612244897, -0.09381361734693877, -0.13778875102040813, -0.2433290775510204, -0.1837183387755102, -0.13974319897959184, -0.14560655714285714, -0.12019870204081631, -0.03127120612244898, 0.10651755102040815, 0.07231466632653061, 0.07231466632653061, -0.005863351020408163, -0.19935393775510202, -0.16808272653061224, 0.07329189081632653, 0.1622193806122449, -0.23062513775510204, -0.23062513775510204, 0.45734137857142854, 0.45734137857142854, 0.26775970714285713, -0.12801649591836733, -0.12801649591836733, -0.13192540510204082, -0.15733325918367347, -0.13290262959183674, -0.13387985408163267, -0.13192540510204082, -0.0996769693877551, -0.09479084183673468, -0.06645131428571427, -0.05570183571428571, -0.05765628469387755, -0.011726702040816326, 0.10651755102040815, 0.06058796326530612, 0.02247617857142857, 0.24626074999999997, 0.24626074999999997, 0.4250929306122449, -0.13290262959183674, -0.13290262959183674, -0.7749395469387754, -0.7749395469387754, -0.593175693877551, -0.1348570775510204, -0.1348570775510204, -0.3244387612244898, -0.2316023622448979, -0.18274111428571427, -0.19642226530612242, -0.20033116224489794, -0.21205785306122446, -0.2267162408163265, -0.1934905806122449, -0.07426911428571428, 0.003908901020408162, 0.06840576326530612, 0.05472461224489796, 0.05765628469387755, 0.05765628469387755, 0.06547408469387754, 0.02736230612244898, 0.02247617857142857, 0.13974319897959184, 0.30978037346938775, 0.08795026632653061, 0.08795026632653061, -0.6596269897959184, -0.6596269897959184, -0.4719997428571428, 
34, 1.3263752784575404, 1.1961236295918365, 1.1961236295918365, 1.5498790938775509, 1.1638752295918366, 1.1638752295918366, 1.0720160540816326, 0.8795026857142856, 0.7856890622448979, 0.7397594744897958, 0.6977387836734694, 0.6586497653061224, 0.6576725418367346, 0.6821031959183673, 0.7436683714285713, 0.8042563224489795, 0.7886207346938775, 0.747577268367347, 0.7749395469387754, 0.8990471704081632, 1.0593121387755102, 1.0808110724489794, 0.976247981632653, 1.153125763265306, 1.7599825959183673, 1.7599825959183673, 1.6026492989795917, 1.0739705030612245, 0.6498547479591836, 1.0827655204081632, 1.4677922581632652, 1.4560655673469387, 1.1433534234693878, 1.0221775214285713, 0.9361816908163264, 0.8492086367346937, 0.7612584071428571, 0.6459458510204081, 0.6322647112244898, 0.6508319714285714, 0.6918754387755102, 0.73878225, 0.7641900806122449, 0.770053425510204, 0.737805025510204, 0.8638670979591836, 0.8638670979591836, 1.060289363265306, 1.1296722836734694, 1.0876516418367348, 1.1853741622448979, -0.24137462857142855, -0.24137462857142855, -0.04397513265306122, 0.12801649591836733, 0.12801649591836733, 0.06938298775510203, -0.009772251020408162, 0.021498954081632653, 0.08599581734693877, 0.16905996224489794, 0.1661282775510204, 0.1544015744897959, 0.0703602112244898, -0.04592958469387755, -0.10456308979591837, -0.09283639387755102, -0.10163141734693877, -0.07133743571428572, 0.033225657142857135, 0.13192540510204082, 0.07133743571428572, -0.10651755102040815, -0.16026493265306122, 0.1710144112244898, 0.1710144112244898, -0.3615733071428571, -0.3215070887755102, 0.13192540510204082, 0.14951545408163264, 0.03127120612244898, 0.04202068163265306, 0.061565187755102044, -0.01856727857142857, -0.033225657142857135, -0.12997094489795916, -0.16905996224489794, -0.12215315102040816, -0.10749477551020407, -0.11628979285714285, -0.0830641387755102, -0.02247617857142857, 0.05667906020408162, 0.07329189081632653, 0.08013246632653061, -0.0244306306122449, -0.0244306306122449, -0.2198756714285714, -0.03518010612244898, 0.09479084183673468, 0.12410759897959182, -0.33909714999999996, -0.33909714999999996, -0.36743667653061224, -0.1358343020408163, -0.1358343020408163, -0.1182442418367347, -0.12313037551020409, -0.11922147857142856, -0.1153125693877551, -0.10749477551020407, -0.1387659744897959, -0.08599581734693877, -0.04886126020408163, -0.021498954081632653, -0.03518010612244898, -0.03127120612244898, -0.0244306306122449, 0.033225657142857135, 0.05961073877551021, 0.04495235714285714, -0.040066232653061216, 0.1485382295918367, 0.29316756224489793, -0.26775970714285713, -0.26775970714285713, -0.746600043877551, -0.4817720336734694, -0.3029398040816326, -0.25407854387755097, -0.3987078765306122, -0.3918673071428571, -0.22573901632653057, -0.13778875102040813, -0.12019870204081631, -0.1592877081632653, -0.20033116224489794, -0.1934905806122449, -0.1788322051020408, -0.12215315102040816, -0.046906809183673466, 0.009772251020408162, 0.01759005306122449, -0.0244306306122449, -0.02736230612244898, 0.0869730418367347, 0.0869730418367347, 0.010749477551020407, 0.025407854081632653, 0.11922147857142856, 0.261896337755102, 
35, 1.2881287300973052, 1.384728101020408, 1.1931919561224489, 1.1922147326530612, 0.9019788428571428, 0.9019788428571428, 1.1306495081632653, 1.453133894897959, 1.4042725857142857, 1.18439693877551, 0.9185916551020408, 0.9185916551020408, 0.8795026857142856, 0.8228235826530611, 0.7680989775510203, 0.6566953173469388, 0.6566953173469388, 0.6811259714285713, 0.6957843357142857, 0.7524633897959183, 0.716306043877551, 0.716306043877551, 0.7329189051020407, 0.8599582010204082, 1.1580118836734694, 1.1580118836734694, 1.1032872295918366, 1.1032872295918366, 1.1873286112244896, 1.6691005469387752, 1.6691005469387752, 0.8863432551020408, 0.8863432551020408, 0.7260783346938775, 1.2596433020408162, 1.2596433020408162, 1.1101277989795917, 1.1101277989795917, 1.0045874846938774, 0.8814571336734693, 0.7407366989795918, 0.7407366989795918, 0.7084882499999999, 0.7084882499999999, 0.7026249051020408, 0.7583267346938775, 0.7583267346938775, 0.784711837755102, 0.784711837755102, 0.7895979591836734, 0.8003474255102041, -0.26873693163265305, 0.09674529081632652, 0.30587147653061225, -0.1592877081632653, -0.1592877081632653, -0.13094816938775508, -0.04104345714285714, 0.0635196357142857, 0.11726701734693877, 0.03908900612244898, 0.03908900612244898, 0.04202068163265306, 0.07622356326530612, 0.13387985408163267, 0.07622356326530612, 0.07622356326530612, 0.04592958469387755, 0.01759005306122449, 0.0, -0.03518010612244898, -0.03518010612244898, -0.06547408469387754, -0.011726702040816326, 0.06840576326530612, 0.06840576326530612, -0.1807866530612245, -0.1807866530612245, -0.023453404081632653, -0.11433534489795917, -0.11433534489795917, -0.0996769693877551, -0.0996769693877551, 0.05961073877551021, 0.004886125510204081, 0.004886125510204081, 0.10456308979591837, 0.10456308979591837, 0.0009772255102040816, -0.05961073877551021, -0.19251335612244896, -0.19251335612244896, -0.08892749081632653, -0.08892749081632653, -0.13681152653061224, -0.032248430612244895, -0.032248430612244895, 0.05961073877551021, 0.05961073877551021, 0.03713455714285714, -0.0009772255102040816, 0.10651755102040815, -0.2501696469387755, -0.46027305204081626, -0.36352777959183674, -0.36352777959183674, -0.36450500408163267, -0.34007437346938774, -0.30587147653061225, -0.18469556224489794, -0.13387985408163267, -0.13387985408163267, -0.14951545408163264, -0.12606204795918366, -0.12508482346938776, -0.1153125693877551, -0.1153125693877551, -0.0635196357142857, -0.04592958469387755, -0.04983848469387755, -0.0244306306122449, -0.0244306306122449, 0.07133743571428572, 0.1035858663265306, -0.07720078775510204, -0.07720078775510204, 0.2843725193877551, 0.2843725193877551, 0.46222749999999996, -0.45440970612244896, -0.45440970612244896, -0.5120659846938775, -0.5120659846938775, -0.36450500408163267, -0.4084801183673469, -0.4084801183673469, -0.2482151989795918, -0.2482151989795918, -0.17590053265306121, -0.1182442418367347, -0.16319660510204081, -0.16319660510204081, -0.12899372040816326, -0.12899372040816326, -0.09576806632653061, -0.0029316755102040816, -0.0029316755102040816, -0.026385078571428567, -0.026385078571428567, -0.052770157142857134, -0.09088194489795919, 
36, 1.3028216513487472, 0.8003474255102041, 0.8638670979591836, 0.9694074122448979, 1.0749477265306122, 1.1042644540816327, 1.1521485387755102, 1.2645294224489796, 1.3730014102040815, 1.2244631316326529, 1.1453078714285714, 0.9840657755102039, 1.0896060908163265, 1.0896060908163265, 1.4834278459183674, 1.541084075510204, 1.2498709622448978, 1.0593121387755102, 0.8785254612244897, 0.8335730489795917, 0.808165219387755, 0.770053425510204, 0.6967615591836734, 0.6723309051020407, 0.7221693897959183, 0.7221693897959183, 0.8179374612244898, 0.8189146857142857, 0.7798257163265305, 0.7720078744897958, 0.8433452918367346, 0.9772252061224489, 1.0270636418367347, 1.1023100051020407, 1.1159911448979591, 1.4355437612244897, 2.001357175510204, 1.4267487428571426, 1.4267487428571426, 0.5677678142857142, 1.1541029867346937, 1.1541029867346937, 1.3045956163265306, 1.2664838714285713, 1.0270636418367347, 0.9987241397959183, 0.9567034969387754, 0.9078421887755102, 0.8677759948979591, 0.8032790979591836, 0.7251010622448979, -0.0009772255102040816, -0.032248430612244895, -0.10749477551020407, -0.09674529081632652, -0.012703927551020408, 0.0830641387755102, -0.007817801020408162, -0.20814895612244896, -0.06058796326530612, 0.3420288224489796, 0.21108062857142854, -0.20717173163265304, -0.20717173163265304, -0.19739948979591834, -0.040066232653061216, 0.10554031428571427, 0.13778875102040813, 0.07231466632653061, 0.04983848469387755, 0.08990471428571428, 0.1592877081632653, 0.0918591693877551, 0.07720078775510204, -0.0244306306122449, -0.0244306306122449, -0.07817801122448978, -0.061565187755102044, -0.05179293265306122, -0.0703602112244898, -0.010749477551020407, 0.10065419285714286, 0.11628979285714285, -0.006840576530612245, -0.1876272357142857, 0.06058796326530612, -0.36352777959183674, -0.5619044693877551, -0.5619044693877551, 0.46515917244897953, -0.010749477551020407, -0.010749477551020407, -0.23551125918367347, -0.0996769693877551, 0.07133743571428572, 0.04104345714285714, -0.006840576530612245, -0.07329189081632653, -0.1485382295918367, -0.1485382295918367, -0.0752463387755102, -0.09088194489795919, -0.021498954081632653, 0.03518010612244898, 0.05374738775510204, 0.12019870204081631, 0.23551125918367347, 0.323461537755102, 0.2482151989795918, -0.2579874408163265, -0.46222749999999996, -0.5863351234693878, -0.3850267132653061, -0.3850267132653061, -0.3420288224489796, -0.3615733071428571, -0.20130838673469387, -0.15537879897959184, -0.1465837806122449, -0.1544015744897959, -0.1485382295918367, -0.13192540510204082, -0.11238089591836734, -0.0674285387755102, -0.026385078571428567, -0.026385078571428567, -0.003908901020408162, 0.03908900612244898, 0.05472461224489796, 0.08110969081632652, 0.11335812040816325, 0.03029398163265306, -0.012703927551020408, 0.04788403265306122, 0.20814895612244896, 0.18665001122448976, -0.593175693877551, -0.49252149999999995, -0.49252149999999995, -0.2824180714285714, -0.3830722642857143, -0.3830722642857143, -0.5091343122448979, -0.44952358469387754, -0.34105159795918366, -0.20130838673469387, -0.09869974489795917, -0.09283639387755102, -0.1387659744897959, -0.15537879897959184, -0.16124215612244897, 
