time[s],speed[m/s],acc_x(0)[G],acc_x(1)[G],acc_x(2)[G],acc_x(3)[G],acc_x(4)[G],acc_x(5)[G],acc_x(6)[G],acc_x(7)[G],acc_x(8)[G],acc_x(9)[G],acc_x(10)[G],acc_x(11)[G],acc_x(12)[G],acc_x(13)[G],acc_x(14)[G],acc_x(15)[G],acc_x(16)[G],acc_x(17)[G],acc_x(18)[G],acc_x(19)[G],acc_x(20)[G],acc_x(21)[G],acc_x(22)[G],acc_x(23)[G],acc_x(24)[G],acc_x(25)[G],acc_x(26)[G],acc_x(27)[G],acc_x(28)[G],acc_x(29)[G],acc_x(30)[G],acc_x(31)[G],acc_x(32)[G],acc_x(33)[G],acc_x(34)[G],acc_x(35)[G],acc_x(36)[G],acc_x(37)[G],acc_x(38)[G],acc_x(39)[G],acc_x(40)[G],acc_x(41)[G],acc_x(42)[G],acc_x(43)[G],acc_x(44)[G],acc_x(45)[G],acc_x(46)[G],acc_x(47)[G],acc_x(48)[G],acc_x(49)[G],acc_y(0)[G],acc_y(1)[G],acc_y(2)[G],acc_y(3)[G],acc_y(4)[G],acc_y(5)[G],acc_y(6)[G],acc_y(7)[G],acc_y(8)[G],acc_y(9)[G],acc_y(10)[G],acc_y(11)[G],acc_y(12)[G],acc_y(13)[G],acc_y(14)[G],acc_y(15)[G],acc_y(16)[G],acc_y(17)[G],acc_y(18)[G],acc_y(19)[G],acc_y(20)[G],acc_y(21)[G],acc_y(22)[G],acc_y(23)[G],acc_y(24)[G],acc_y(25)[G],acc_y(26)[G],acc_y(27)[G],acc_y(28)[G],acc_y(29)[G],acc_y(30)[G],acc_y(31)[G],acc_y(32)[G],acc_y(33)[G],acc_y(34)[G],acc_y(35)[G],acc_y(36)[G],acc_y(37)[G],acc_y(38)[G],acc_y(39)[G],acc_y(40)[G],acc_y(41)[G],acc_y(42)[G],acc_y(43)[G],acc_y(44)[G],acc_y(45)[G],acc_y(46)[G],acc_y(47)[G],acc_y(48)[G],acc_y(49)[G],acc_z(0)[G],acc_z(1)[G],acc_z(2)[G],acc_z(3)[G],acc_z(4)[G],acc_z(5)[G],acc_z(6)[G],acc_z(7)[G],acc_z(8)[G],acc_z(9)[G],acc_z(10)[G],acc_z(11)[G],acc_z(12)[G],acc_z(13)[G],acc_z(14)[G],acc_z(15)[G],acc_z(16)[G],acc_z(17)[G],acc_z(18)[G],acc_z(19)[G],acc_z(20)[G],acc_z(21)[G],acc_z(22)[G],acc_z(23)[G],acc_z(24)[G],acc_z(25)[G],acc_z(26)[G],acc_z(27)[G],acc_z(28)[G],acc_z(29)[G],acc_z(30)[G],acc_z(31)[G],acc_z(32)[G],acc_z(33)[G],acc_z(34)[G],acc_z(35)[G],acc_z(36)[G],acc_z(37)[G],acc_z(38)[G],acc_z(39)[G],acc_z(40)[G],acc_z(41)[G],acc_z(42)[G],acc_z(43)[G],acc_z(44)[G],acc_z(45)[G],acc_z(46)[G],acc_z(47)[G],acc_z(48)[G],acc_z(49)[G],
0, 0.0641600811487411, 0.9997013632653061, 1.000678587755102, 1.001655812244898, 0.9997013632653061, 0.9967696908163265, 0.9967696908163265, 1.001655812244898, 1.0026330367346938, 1.001655812244898, 1.0055647091836732, 1.0055647091836732, 1.0045874846938774, 1.001655812244898, 0.9977469153061225, 0.9987241397959183, 1.001655812244898, 0.9997013632653061, 0.9987241397959183, 0.9987241397959183, 0.9987241397959183, 1.001655812244898, 1.0026330367346938, 1.001655812244898, 1.001655812244898, 0.9987241397959183, 1.000678587755102, 1.001655812244898, 1.000678587755102, 1.0026330367346938, 1.001655812244898, 1.0026330367346938, 1.0045874846938774, 1.0065419336734693, 1.0036102602040815, 0.9977469153061225, 0.9977469153061225, 1.000678587755102, 1.0026330367346938, 0.9997013632653061, 1.0036102602040815, 1.0026330367346938, 1.001655812244898, 1.000678587755102, 1.000678587755102, 1.000678587755102, 1.000678587755102, 1.000678587755102, 1.000678587755102, 0.9997013632653061, 0.9987241397959183, 0.03127120612244898, 0.032248430612244895, 0.03029398163265306, 0.029316754081632652, 0.033225657142857135, 0.033225657142857135, 0.03029398163265306, 0.025407854081632653, 0.023453404081632653, 0.032248430612244895, 0.033225657142857135, 0.03420288163265306, 0.033225657142857135, 0.03518010612244898, 0.03518010612244898, 0.03127120612244898, 0.03127120612244898, 0.03127120612244898, 0.03029398163265306, 0.032248430612244895, 0.03127120612244898, 0.029316754081632652, 0.02736230612244898, 0.0283395306122449, 0.03127120612244898, 0.032248430612244895, 0.03127120612244898, 0.03127120612244898, 0.03029398163265306, 0.03029398163265306, 0.0283395306122449, 0.0283395306122449, 0.0283395306122449, 0.02736230612244898, 0.029316754081632652, 0.03127120612244898, 0.02736230612244898, 0.026385078571428567, 0.029316754081632652, 0.0283395306122449, 0.026385078571428567, 0.0244306306122449, 0.026385078571428567, 0.029316754081632652, 0.032248430612244895, 0.032248430612244895, 0.029316754081632652, 0.0283395306122449, 0.029316754081632652, 0.0283395306122449, -0.025407854081632653, -0.025407854081632653, -0.023453404081632653, -0.0244306306122449, -0.026385078571428567, -0.026385078571428567, -0.0244306306122449, -0.03029398163265306, -0.032248430612244895, -0.025407854081632653, -0.025407854081632653, -0.021498954081632653, -0.02247617857142857, -0.025407854081632653, -0.029316754081632652, -0.0283395306122449, -0.0283395306122449, -0.026385078571428567, -0.0283395306122449, -0.02736230612244898, -0.0283395306122449, -0.02736230612244898, -0.0283395306122449, -0.02736230612244898, -0.0283395306122449, -0.026385078571428567, -0.02736230612244898, -0.0283395306122449, -0.026385078571428567, -0.0244306306122449, -0.02247617857142857, -0.023453404081632653, -0.02736230612244898, -0.029316754081632652, -0.0283395306122449, -0.0283395306122449, -0.029316754081632652, -0.0283395306122449, -0.026385078571428567, -0.02247617857142857, -0.02247617857142857, -0.02736230612244898, -0.026385078571428567, -0.026385078571428567, -0.02736230612244898, -0.025407854081632653, -0.0283395306122449, -0.0244306306122449, -0.0244306306122449, -0.0244306306122449, 
1, 0.06063263045619394, 0.9987241397959183, 1.001655812244898, 1.0036102602040815, 0.9997013632653061, 0.9997013632653061, 0.9987241397959183, 0.9997013632653061, 1.0036102602040815, 1.001655812244898, 1.000678587755102, 1.001655812244898, 1.0026330367346938, 1.000678587755102, 1.0026330367346938, 1.001655812244898, 0.9997013632653061, 0.9977469153061225, 0.9997013632653061, 1.0026330367346938, 1.001655812244898, 1.000678587755102, 0.9987241397959183, 0.9987241397959183, 1.000678587755102, 1.000678587755102, 1.0036102602040815, 1.0045874846938774, 1.001655812244898, 1.001655812244898, 1.0026330367346938, 1.0026330367346938, 0.9997013632653061, 0.9987241397959183, 1.001655812244898, 1.0036102602040815, 1.0036102602040815, 1.001655812244898, 1.001655812244898, 1.001655812244898, 1.000678587755102, 1.000678587755102, 0.9997013632653061, 0.9987241397959183, 0.9987241397959183, 0.9987241397959183, 0.9997013632653061, 1.0036102602040815, 1.0065419336734693, 1.0045874846938774, 1.001655812244898, 0.0283395306122449, 0.0283395306122449, 0.029316754081632652, 0.0283395306122449, 0.026385078571428567, 0.029316754081632652, 0.029316754081632652, 0.0283395306122449, 0.03029398163265306, 0.03029398163265306, 0.03029398163265306, 0.03029398163265306, 0.032248430612244895, 0.03127120612244898, 0.03029398163265306, 0.03029398163265306, 0.03029398163265306, 0.0283395306122449, 0.03127120612244898, 0.03029398163265306, 0.026385078571428567, 0.0283395306122449, 0.03127120612244898, 0.033225657142857135, 0.032248430612244895, 0.029316754081632652, 0.02736230612244898, 0.0283395306122449, 0.03420288163265306, 0.029316754081632652, 0.029316754081632652, 0.029316754081632652, 0.03029398163265306, 0.03029398163265306, 0.03029398163265306, 0.03029398163265306, 0.03127120612244898, 0.032248430612244895, 0.03127120612244898, 0.029316754081632652, 0.03029398163265306, 0.032248430612244895, 0.033225657142857135, 0.03518010612244898, 0.026385078571428567, 0.025407854081632653, 0.03029398163265306, 0.033225657142857135, 0.029316754081632652, 0.025407854081632653, -0.0244306306122449, -0.025407854081632653, -0.026385078571428567, -0.026385078571428567, -0.025407854081632653, -0.023453404081632653, -0.023453404081632653, -0.023453404081632653, -0.0244306306122449, -0.02247617857142857, -0.023453404081632653, -0.023453404081632653, -0.021498954081632653, -0.02247617857142857, -0.02052172857142857, -0.021498954081632653, -0.023453404081632653, -0.0244306306122449, -0.0283395306122449, -0.026385078571428567, -0.025407854081632653, -0.0244306306122449, -0.025407854081632653, -0.0244306306122449, -0.023453404081632653, -0.023453404081632653, -0.0244306306122449, -0.023453404081632653, -0.02736230612244898, -0.026385078571428567, -0.0283395306122449, -0.02736230612244898, -0.0244306306122449, -0.0244306306122449, -0.0244306306122449, -0.025407854081632653, -0.026385078571428567, -0.02247617857142857, -0.02247617857142857, -0.02247617857142857, -0.023453404081632653, -0.026385078571428567, -0.025407854081632653, -0.02247617857142857, -0.023453404081632653, -0.02247617857142857, -0.021498954081632653, -0.023453404081632653, -0.0244306306122449, -0.025407854081632653, 
2, 0.056114010034858816, 0.9997013632653061, 1.001655812244898, 1.000678587755102, 1.0026330367346938, 0.9997013632653061, 0.9977469153061225, 0.9967696908163265, 1.000678587755102, 1.001655812244898, 1.000678587755102, 0.9997013632653061, 0.9967696908163265, 0.9977469153061225, 1.0045874846938774, 1.008496381632653, 1.0045874846938774, 1.000678587755102, 1.001655812244898, 0.9987241397959183, 0.9997013632653061, 0.9987241397959183, 0.9997013632653061, 0.9997013632653061, 0.9928607938775509, 1.0055647091836732, 1.0104508306122448, 1.0143597275510203, 1.0065419336734693, 0.9967696908163265, 0.9869974489795917, 0.9977469153061225, 1.000678587755102, 1.001655812244898, 1.0045874846938774, 1.0026330367346938, 0.9997013632653061, 1.000678587755102, 1.001655812244898, 1.0045874846938774, 1.0065419336734693, 0.9987241397959183, 0.9987241397959183, 0.9967696908163265, 0.9987241397959183, 0.9957924663265305, 1.000678587755102, 1.000678587755102, 0.9997013632653061, 0.9957924663265305, 0.9928607938775509, 0.0283395306122449, 0.02736230612244898, 0.029316754081632652, 0.0283395306122449, 0.02736230612244898, 0.02736230612244898, 0.029316754081632652, 0.029316754081632652, 0.026385078571428567, 0.026385078571428567, 0.0283395306122449, 0.033225657142857135, 0.033225657142857135, 0.03127120612244898, 0.03029398163265306, 0.032248430612244895, 0.03127120612244898, 0.03420288163265306, 0.029316754081632652, 0.03420288163265306, 0.032248430612244895, 0.03029398163265306, 0.025407854081632653, 0.0244306306122449, 0.03029398163265306, 0.03127120612244898, 0.032248430612244895, 0.029316754081632652, 0.029316754081632652, 0.02052172857142857, 0.01954450306122449, 0.026385078571428567, 0.03420288163265306, 0.03713455714285714, 0.03811178163265306, 0.03713455714285714, 0.036157332653061224, 0.029316754081632652, 0.029316754081632652, 0.032248430612244895, 0.033225657142857135, 0.03029398163265306, 0.02736230612244898, 0.0283395306122449, 0.029316754081632652, 0.03127120612244898, 0.029316754081632652, 0.0283395306122449, 0.03127120612244898, 0.033225657142857135, -0.0244306306122449, -0.0244306306122449, -0.02247617857142857, -0.025407854081632653, -0.0244306306122449, -0.02247617857142857, -0.0244306306122449, -0.023453404081632653, -0.029316754081632652, -0.02736230612244898, -0.0283395306122449, -0.0283395306122449, -0.0283395306122449, -0.026385078571428567, -0.02052172857142857, -0.023453404081632653, -0.021498954081632653, -0.029316754081632652, -0.03029398163265306, -0.03029398163265306, -0.02736230612244898, -0.032248430612244895, -0.029316754081632652, -0.03029398163265306, -0.02052172857142857, -0.02052172857142857, -0.01856727857142857, -0.01856727857142857, -0.026385078571428567, -0.03518010612244898, -0.04397513265306122, -0.040066232653061216, -0.03518010612244898, -0.033225657142857135, -0.033225657142857135, -0.033225657142857135, -0.033225657142857135, -0.032248430612244895, -0.029316754081632652, -0.0283395306122449, -0.032248430612244895, -0.032248430612244895, -0.033225657142857135, -0.036157332653061224, -0.036157332653061224, -0.03420288163265306, -0.03518010612244898, -0.03713455714285714, -0.03713455714285714, -0.036157332653061224, 
3, 0.09331553882899116, 0.9957924663265305, 0.9987241397959183, 0.9948152428571428, 0.9957924663265305, 0.9957924663265305, 1.0026330367346938, 1.0065419336734693, 1.0045874846938774, 0.9977469153061225, 0.9987241397959183, 1.000678587755102, 1.0104508306122448, 1.0104508306122448, 1.009473606122449, 1.0065419336734693, 1.0036102602040815, 1.0045874846938774, 1.0065419336734693, 1.007519157142857, 0.9987241397959183, 0.9928607938775509, 0.9948152428571428, 0.9938380183673468, 0.9938380183673468, 0.9987241397959183, 0.9967696908163265, 0.9997013632653061, 0.9987241397959183, 0.9977469153061225, 0.9987241397959183, 1.001655812244898, 1.001655812244898, 1.000678587755102, 0.9997013632653061, 1.0036102602040815, 1.0045874846938774, 1.0055647091836732, 1.001655812244898, 1.000678587755102, 0.9997013632653061, 1.000678587755102, 1.001655812244898, 0.9987241397959183, 0.9987241397959183, 0.9977469153061225, 0.9997013632653061, 0.9997013632653061, 1.0045874846938774, 1.007519157142857, 1.0045874846938774, 0.03908900612244898, 0.03908900612244898, 0.036157332653061224, 0.029316754081632652, 0.02247617857142857, 0.021498954081632653, 0.01954450306122449, 0.012703927551020408, 0.009772251020408162, 0.011726702040816326, 0.01954450306122449, 0.01954450306122449, 0.01954450306122449, 0.02247617857142857, 0.029316754081632652, 0.040066232653061216, 0.03713455714285714, 0.033225657142857135, 0.03029398163265306, 0.033225657142857135, 0.033225657142857135, 0.03420288163265306, 0.033225657142857135, 0.03420288163265306, 0.033225657142857135, 0.032248430612244895, 0.032248430612244895, 0.033225657142857135, 0.036157332653061224, 0.03908900612244898, 0.03811178163265306, 0.03811178163265306, 0.03420288163265306, 0.032248430612244895, 0.03127120612244898, 0.03420288163265306, 0.02736230612244898, 0.023453404081632653, 0.023453404081632653, 0.025407854081632653, 0.02736230612244898, 0.025407854081632653, 0.023453404081632653, 0.023453404081632653, 0.026385078571428567, 0.03127120612244898, 0.03029398163265306, 0.0244306306122449, 0.0244306306122449, 0.0244306306122449, -0.03811178163265306, -0.036157332653061224, -0.03811178163265306, -0.04104345714285714, -0.040066232653061216, -0.040066232653061216, -0.040066232653061216, -0.04104345714285714, -0.046906809183673466, -0.05179293265306122, -0.05765628469387755, -0.05863350918367346, -0.05667906020408162, -0.050815709183673466, -0.04202068163265306, -0.03811178163265306, -0.033225657142857135, -0.03127120612244898, -0.02736230612244898, -0.032248430612244895, -0.036157332653061224, -0.03518010612244898, -0.03518010612244898, -0.033225657142857135, -0.033225657142857135, -0.03518010612244898, -0.03518010612244898, -0.036157332653061224, -0.03420288163265306, -0.03518010612244898, -0.03518010612244898, -0.03420288163265306, -0.04104345714285714, -0.04104345714285714, -0.03811178163265306, -0.036157332653061224, -0.03713455714285714, -0.04202068163265306, -0.04202068163265306, -0.042997909183673466, -0.042997909183673466, -0.042997909183673466, -0.04104345714285714, -0.040066232653061216, -0.040066232653061216, -0.03811178163265306, -0.03518010612244898, -0.03420288163265306, -0.03518010612244898, -0.036157332653061224, 
4, 0.06477948767374687, 1.001655812244898, 0.9967696908163265, 0.9977469153061225, 0.9997013632653061, 1.000678587755102, 1.0036102602040815, 1.0065419336734693, 1.0055647091836732, 0.9997013632653061, 0.9997013632653061, 1.0026330367346938, 1.007519157142857, 1.0045874846938774, 0.9987241397959183, 1.001655812244898, 1.0036102602040815, 1.000678587755102, 0.9977469153061225, 0.9948152428571428, 0.9997013632653061, 0.9987241397959183, 1.000678587755102, 0.9987241397959183, 0.9938380183673468, 0.9967696908163265, 0.9967696908163265, 0.9957924663265305, 0.9938380183673468, 0.9948152428571428, 1.000678587755102, 1.0036102602040815, 0.9967696908163265, 1.000678587755102, 1.0065419336734693, 1.0114280540816327, 1.008496381632653, 0.9987241397959183, 0.9889518969387755, 0.9879746724489796, 0.9869974489795917, 0.9948152428571428, 1.000678587755102, 0.9967696908163265, 0.9938380183673468, 0.9987241397959183, 1.008496381632653, 1.007519157142857, 1.0045874846938774, 1.0026330367346938, 0.991883569387755, 0.025407854081632653, 0.03029398163265306, 0.029316754081632652, 0.023453404081632653, 0.025407854081632653, 0.026385078571428567, 0.026385078571428567, 0.023453404081632653, 0.029316754081632652, 0.0283395306122449, 0.025407854081632653, 0.023453404081632653, 0.023453404081632653, 0.025407854081632653, 0.0244306306122449, 0.023453404081632653, 0.023453404081632653, 0.021498954081632653, 0.023453404081632653, 0.025407854081632653, 0.0283395306122449, 0.02736230612244898, 0.029316754081632652, 0.0283395306122449, 0.03908900612244898, 0.03811178163265306, 0.03518010612244898, 0.03518010612244898, 0.033225657142857135, 0.029316754081632652, 0.033225657142857135, 0.04104345714285714, 0.036157332653061224, 0.03811178163265306, 0.04788403265306122, 0.05570183571428571, 0.04788403265306122, 0.04397513265306122, 0.040066232653061216, 0.04104345714285714, 0.040066232653061216, 0.03420288163265306, 0.0244306306122449, 0.023453404081632653, 0.03518010612244898, 0.03713455714285714, 0.03518010612244898, 0.033225657142857135, 0.03713455714285714, 0.052770157142857134, -0.03908900612244898, -0.040066232653061216, -0.04104345714285714, -0.03908900612244898, -0.036157332653061224, -0.03420288163265306, -0.03420288163265306, -0.033225657142857135, -0.040066232653061216, -0.042997909183673466, -0.03908900612244898, -0.040066232653061216, -0.04104345714285714, -0.042997909183673466, -0.040066232653061216, -0.040066232653061216, -0.042997909183673466, -0.04202068163265306, -0.04202068163265306, -0.042997909183673466, -0.04495235714285714, -0.040066232653061216, -0.04495235714285714, -0.04886126020408163, -0.05179293265306122, -0.05374738775510204, -0.05472461224489796, -0.05472461224489796, -0.05374738775510204, -0.052770157142857134, -0.052770157142857134, -0.05472461224489796, -0.04886126020408163, -0.04592958469387755, -0.05472461224489796, -0.05863350918367346, -0.06938298775510203, -0.06938298775510203, -0.06840576326530612, -0.0635196357142857, -0.05863350918367346, -0.05765628469387755, -0.06058796326530612, -0.05765628469387755, -0.052770157142857134, -0.052770157142857134, -0.04983848469387755, -0.06058796326530612, -0.061565187755102044, -0.06449686020408163, 
5, 0.07638771101034772, 0.9957924663265305, 0.9948152428571428, 0.991883569387755, 0.9889518969387755, 0.991883569387755, 0.9928607938775509, 0.9957924663265305, 0.9987241397959183, 0.9957924663265305, 0.9987241397959183, 1.000678587755102, 0.9997013632653061, 0.9977469153061225, 0.9957924663265305, 0.9967696908163265, 1.000678587755102, 1.000678587755102, 1.000678587755102, 0.9987241397959183, 1.000678587755102, 1.001655812244898, 0.9977469153061225, 0.9977469153061225, 0.9997013632653061, 1.001655812244898, 1.0055647091836732, 1.0065419336734693, 1.0055647091836732, 0.9997013632653061, 0.9977469153061225, 1.0026330367346938, 1.001655812244898, 1.0026330367346938, 1.0036102602040815, 1.001655812244898, 1.001655812244898, 0.9987241397959183, 1.000678587755102, 1.001655812244898, 1.0036102602040815, 1.0036102602040815, 0.9957924663265305, 0.9957924663265305, 0.9957924663265305, 1.001655812244898, 0.9987241397959183, 0.9967696908163265, 0.9987241397959183, 1.001655812244898, 1.0026330367346938, 0.06058796326530612, 0.06058796326530612, 0.05667906020408162, 0.050815709183673466, 0.05472461224489796, 0.05961073877551021, 0.05472461224489796, 0.04886126020408163, 0.04592958469387755, 0.04788403265306122, 0.04788403265306122, 0.04592958469387755, 0.04495235714285714, 0.04104345714285714, 0.040066232653061216, 0.040066232653061216, 0.03811178163265306, 0.03713455714285714, 0.032248430612244895, 0.029316754081632652, 0.03127120612244898, 0.0283395306122449, 0.029316754081632652, 0.026385078571428567, 0.023453404081632653, 0.0244306306122449, 0.0283395306122449, 0.025407854081632653, 0.0244306306122449, 0.023453404081632653, 0.025407854081632653, 0.023453404081632653, 0.023453404081632653, 0.021498954081632653, 0.02247617857142857, 0.026385078571428567, 0.0244306306122449, 0.021498954081632653, 0.02052172857142857, 0.02247617857142857, 0.02247617857142857, 0.021498954081632653, 0.021498954081632653, 0.02052172857142857, 0.023453404081632653, 0.021498954081632653, 0.021498954081632653, 0.02052172857142857, 0.01954450306122449, 0.02052172857142857, -0.06058796326530612, -0.061565187755102044, -0.0635196357142857, -0.06840576326530612, -0.06254241224489795, -0.06645131428571427, -0.06449686020408163, -0.05961073877551021, -0.05472461224489796, -0.052770157142857134, -0.05472461224489796, -0.05863350918367346, -0.05961073877551021, -0.05667906020408162, -0.052770157142857134, -0.05179293265306122, -0.052770157142857134, -0.050815709183673466, -0.04983848469387755, -0.050815709183673466, -0.05374738775510204, -0.052770157142857134, -0.05374738775510204, -0.05570183571428571, -0.05179293265306122, -0.04788403265306122, -0.04983848469387755, -0.04788403265306122, -0.046906809183673466, -0.04788403265306122, -0.04983848469387755, -0.04886126020408163, -0.046906809183673466, -0.04788403265306122, -0.046906809183673466, -0.04886126020408163, -0.04788403265306122, -0.046906809183673466, -0.04495235714285714, -0.04592958469387755, -0.04495235714285714, -0.05179293265306122, -0.052770157142857134, -0.04886126020408163, -0.04983848469387755, -0.050815709183673466, -0.04886126020408163, -0.046906809183673466, -0.04886126020408163, -0.050815709183673466, 
6, 0.5106265113123684, 1.1062189020408162, 1.125763386734694, 1.0974238846938775, 0.9791796551020407, 0.900024394897959, 0.9742935336734694, 1.03097253877551, 1.061266587755102, 1.0348814357142857, 0.9879746724489796, 0.9537718244897959, 0.9430222612244897, 0.9010016183673469, 0.8775482367346938, 0.8863432551020408, 0.9146827581632652, 0.9225005520408163, 0.9185916551020408, 0.8726621163265306, 0.8550720795918366, 0.868753219387755, 0.8746165642857142, 0.9127283091836734, 0.9772252061224489, 1.0133825030612245, 1.0270636418367347, 1.0866744173469387, 1.1355356295918366, 1.166806902040816, 1.2127364408163264, 1.1931919561224489, 1.0905833142857142, 1.0387903326530612, 1.0554032418367347, 1.1267406112244898, 1.153125763265306, 1.1159911448979591, 1.069084381632653, 1.0339042122448978, 0.9703846367346938, 0.9439994846938775, 0.8795026857142856, 0.8492086367346937, 0.8570265285714285, 0.8667987704081632, 0.8746165642857142, 0.8159830132653061, 0.7729850979591837, 0.775916819387755, 0.8101196673469387, 0.0752463387755102, 0.12606204795918366, 0.09381361734693877, 0.009772251020408162, -0.026385078571428567, -0.09283639387755102, -0.09772252040816326, -0.03127120612244898, 0.02736230612244898, 0.01759005306122449, 0.003908901020408162, 0.01954450306122449, 0.0283395306122449, -0.005863351020408163, -0.0283395306122449, -0.046906809183673466, -0.04104345714285714, -0.01563560306122449, 0.003908901020408162, -0.03127120612244898, -0.09381361734693877, -0.05374738775510204, -0.01856727857142857, -0.04397513265306122, -0.08208691428571428, -0.14462933265306122, -0.13387985408163267, -0.0703602112244898, 0.0029316755102040816, 0.12117592653061224, 0.12703927244897958, 0.03127120612244898, -0.05765628469387755, -0.08404136326530612, -0.04592958469387755, 0.04592958469387755, 0.1514699020408163, 0.10847199897959184, 0.10163141734693877, 0.0752463387755102, 0.0674285387755102, 0.036157332653061224, 0.04202068163265306, 0.07817801122448978, 0.0996769693877551, 0.0869730418367347, 0.052770157142857134, 0.06547408469387754, 0.07329189081632653, 0.0830641387755102, -0.12313037551020409, -0.13094816938775508, -0.19739948979591834, -0.2706913806122449, -0.2267162408163265, -0.12215315102040816, -0.10065419285714286, -0.08110969081632652, -0.0752463387755102, -0.0674285387755102, -0.06645131428571427, -0.07133743571428572, -0.07817801122448978, -0.07817801122448978, -0.0703602112244898, -0.03908900612244898, -0.0283395306122449, -0.021498954081632653, -0.016612828571428567, -0.01368115306122449, -0.010749477551020407, 0.010749477551020407, 0.04592958469387755, 0.061565187755102044, 0.06449686020408163, 0.07622356326530612, 0.08892749081632653, 0.0635196357142857, -0.004886125510204081, -0.24039740510204077, -0.323461537755102, -0.29316756224489793, -0.300985356122449, -0.26287358673469385, -0.13387985408163267, -0.08795026632653061, -0.07915524183673468, -0.09576806632653061, -0.0830641387755102, -0.0752463387755102, -0.07817801122448978, -0.07720078775510204, -0.09381361734693877, -0.07133743571428572, -0.03420288163265306, -0.032248430612244895, -0.052770157142857134, -0.04202068163265306, -0.03127120612244898, 0.006840576530612245, 
7, 0.8085210379441218, 0.8101196673469387, 0.8580037530612245, 0.9928607938775509, 1.009473606122449, 0.9879746724489796, 0.9957924663265305, 1.101332781632653, 1.277233337755102, 1.3573658224489795, 1.1863513867346938, 0.9576807214285713, 1.0905833142857142, 1.1716930234693876, 1.0192458479591835, 0.9987241397959183, 0.9948152428571428, 1.0563804663265306, 1.0798338479591836, 1.0466081265306122, 1.0104508306122448, 1.0104508306122448, 0.9234777765306121, 0.8912293765306121, 0.8804799102040817, 0.8873204795918367, 0.8912293765306121, 0.8873204795918367, 0.8902521520408162, 0.869730443877551, 0.8599582010204082, 0.8374819459183672, 0.8208691346938775, 0.8423680673469387, 0.9215233275510204, 1.1023100051020407, 1.108173351020408, 1.116968369387755, 1.1384673020408163, 1.216645337755102, 1.23325815, 1.1570346602040815, 1.0426992295918365, 1.0036102602040815, 1.0055647091836732, 1.1003555571428572, 1.092537763265306, 1.0749477265306122, 1.060289363265306, 1.0045874846938774, 0.9293411214285714, 0.0830641387755102, 0.08208691428571428, 0.08501859387755101, 0.08599581734693877, 0.08990471428571428, 0.1182442418367347, 0.14169764795918366, 0.02052172857142857, -0.16319660510204081, -0.07426911428571428, 0.2521240959183673, 0.2667824836734694, 0.08599581734693877, -0.09772252040816326, -0.07231466632653061, -0.011726702040816326, 0.036157332653061224, 0.016612828571428567, -0.023453404081632653, 0.016612828571428567, 0.016612828571428567, 0.03518010612244898, 0.008795026530612244, -0.04495235714285714, -0.042997909183673466, -0.014658377551020408, 0.01759005306122449, 0.025407854081632653, 0.009772251020408162, -0.023453404081632653, -0.025407854081632653, -0.03713455714285714, -0.05179293265306122, -0.033225657142857135, -0.016612828571428567, -0.025407854081632653, -0.061565187755102044, 0.00195445, 0.0635196357142857, 0.08110969081632652, 0.04397513265306122, -0.021498954081632653, -0.007817801020408162, 0.009772251020408162, 0.0918591693877551, 0.13290262959183674, 0.14951545408163264, 0.14267487142857144, 0.10944922346938774, 0.02736230612244898, 0.006840576530612245, 0.04592958469387755, 0.08990471428571428, 0.08013246632653061, 0.10163141734693877, 0.1035858663265306, 0.02247617857142857, -0.17492330816326532, -0.32639321020408163, -0.2022856112244898, -0.0830641387755102, -0.13974319897959184, -0.24430630204081633, -0.3293248826530612, -0.31759819183673466, -0.2433290775510204, -0.20130838673469387, -0.1622193806122449, -0.12215315102040816, -0.11140367244897958, -0.11140367244897958, -0.09381361734693877, -0.0996769693877551, -0.09479084183673468, -0.08404136326530612, -0.08404136326530612, -0.05374738775510204, -0.03908900612244898, 0.005863351020408163, 0.003908901020408162, -0.008795026530612244, -0.02736230612244898, -0.04592958469387755, -0.016612828571428567, 0.01954450306122449, 0.01759005306122449, -0.05570183571428571, -0.16417382959183674, -0.1934905806122449, -0.21694399897959182, -0.2501696469387755, -0.30391702857142855, -0.2579874408163265, -0.20814895612244896, -0.11140367244897958, -0.08892749081632653, -0.10065419285714286, -0.08501859387755101, -0.08013246632653061, -0.025407854081632653, 
8, 0.8322600406411143, 0.86191265, 0.8452997397959183, 0.869730443877551, 0.8990471704081632, 0.885366030612245, 0.8452997397959183, 0.7671217530612244, 0.7573495102040816, 0.86191265, 1.0065419336734693, 1.0231547448979592, 1.0280408663265306, 1.03097253877551, 1.1159911448979591, 1.3515024765306123, 1.1003555571428572, 1.0231547448979592, 1.1521485387755102, 1.1277178357142856, 1.03097253877551, 0.9723390846938774, 0.9361816908163264, 1.0045874846938774, 1.0593121387755102, 1.1189228173469385, 1.0788566234693877, 1.0378131091836733, 0.932272793877551, 0.8931838244897958, 0.853117631632653, 0.8628898734693877, 0.8912293765306121, 0.8931838244897958, 0.8941610489795917, 0.8540948561224488, 0.8394363948979592, 0.853117631632653, 0.8814571336734693, 0.9791796551020407, 1.0065419336734693, 1.0964466602040814, 1.2586660775510203, 1.29384615, 1.3348895673469385, 1.276256113265306, 1.076902175510204, 0.8492086367346937, 0.8247780316326531, 0.8863432551020408, 0.9664757397959183, 0.042997909183673466, 0.1035858663265306, 0.14462933265306122, 0.12997094489795916, 0.05374738775510204, 0.05570183571428571, 0.08599581734693877, 0.11238089591836734, 0.10554031428571427, 0.10847199897959184, 0.11726701734693877, 0.1485382295918367, 0.1622193806122449, 0.18665001122448976, -0.11922147857142856, 0.08208691428571428, 0.19642226530612242, 0.21108062857142854, 0.02736230612244898, -0.13094816938775508, -0.10163141734693877, -0.0869730418367347, -0.052770157142857134, -0.03518010612244898, -0.05863350918367346, -0.05863350918367346, -0.025407854081632653, 0.0283395306122449, 0.042997909183673466, 0.03518010612244898, -0.02052172857142857, -0.04397513265306122, -0.029316754081632652, -0.009772251020408162, 0.006840576530612245, -0.05179293265306122, -0.08795026632653061, -0.09479084183673468, -0.08599581734693877, -0.04202068163265306, 0.05179293265306122, 0.036157332653061224, 0.03908900612244898, -0.1182442418367347, -0.24528352551020408, -0.008795026530612244, 0.24919242244897957, 0.24137462857142855, 0.13290262959183674, 0.021498954081632653, -0.036157332653061224, -0.03029398163265306, 0.012703927551020408, 0.01856727857142857, -0.02247617857142857, -0.026385078571428567, -0.033225657142857135, -0.004886125510204081, 0.026385078571428567, 0.004886125510204081, 0.04104345714285714, 0.07329189081632653, 0.06938298775510203, -0.04104345714285714, -0.23844295612244898, -0.021498954081632653, 0.05765628469387755, -0.040066232653061216, -0.13778875102040813, -0.2785091744897959, -0.25896466530612244, -0.23746570714285714, -0.14951545408163264, -0.10163141734693877, -0.06840576326530612, -0.033225657142857135, -0.026385078571428567, -0.023453404081632653, -0.03029398163265306, -0.02736230612244898, -0.042997909183673466, -0.029316754081632652, -0.02052172857142857, -0.006840576530612245, 0.03713455714285714, 0.04495235714285714, 0.04495235714285714, 0.03713455714285714, -0.0283395306122449, -0.03420288163265306, -0.07231466632653061, -0.2785091744897959, -0.23844295612244898, -0.09088194489795919, -0.1153125693877551, -0.1671055020408163, -0.23062513775510204, -0.2091261806122449, -0.1710144112244898, -0.14365209591836733, 
9, 0.8620842974691574, 0.9664757397959183, 1.051494344897959, 1.084719969387755, 1.0729932785714285, 1.0036102602040815, 0.9264094489795917, 0.8892749275510203, 0.9058877397959184, 0.9156599826530613, 0.9185916551020408, 0.9195688795918366, 0.9234777765306121, 0.8130513408163265, 0.7602811836734693, 0.770053425510204, 0.8286869285714286, 0.8912293765306121, 1.0778794, 1.1912375081632653, 1.2361898224489796, 1.1912375081632653, 1.1716930234693876, 1.3505251551020407, 1.302641168367347, 1.1550802112244896, 0.9176144306122449, 0.8560493040816326, 0.9889518969387755, 1.060289363265306, 1.0573576908163265, 1.0720160540816326, 1.048562575510204, 0.9733163091836733, 0.868753219387755, 0.8599582010204082, 0.8599582010204082, 0.8628898734693877, 0.8873204795918367, 0.885366030612245, 0.8589809765306121, 0.8286869285714286, 0.8071879948979591, 0.8023018734693877, 0.8941610489795917, 0.9957924663265305, 1.0260864183673468, 1.0808110724489794, 1.107196126530612, 1.1267406112244898, 1.2743016653061223, 0.021498954081632653, 0.011726702040816326, 0.11335812040816325, 0.12019870204081631, 0.08990471428571428, 0.040066232653061216, 0.02736230612244898, 0.09283639387755102, 0.12117592653061224, 0.12801649591836733, 0.11628979285714285, 0.10260864183673468, 0.07133743571428572, 0.12801649591836733, 0.14267487142857144, 0.12508482346938776, 0.10554031428571427, 0.08013246632653061, 0.09674529081632652, 0.012703927551020408, -0.03713455714285714, 0.32639321020408163, 0.19153613265306121, -0.06254241224489795, -0.12117592653061224, -0.12215315102040816, 0.029316754081632652, 0.025407854081632653, -0.1182442418367347, -0.12508482346938776, -0.08013246632653061, -0.02736230612244898, -0.0029316755102040816, -0.0009772255102040816, -0.0244306306122449, -0.032248430612244895, -0.042997909183673466, -0.05765628469387755, -0.04788403265306122, -0.01856727857142857, -0.011726702040816326, -0.012703927551020408, -0.04592958469387755, -0.08501859387755101, -0.03713455714285714, -0.02736230612244898, -0.026385078571428567, -0.06938298775510203, -0.04788403265306122, 0.05863350918367346, -0.14365209591836733, -0.11238089591836734, -0.12019870204081631, -0.1153125693877551, -0.11238089591836734, -0.08501859387755101, -0.05570183571428571, -0.01563560306122449, 0.00195445, 0.008795026530612244, 0.0029316755102040816, -0.005863351020408163, -0.05765628469387755, -0.009772251020408162, 0.014658377551020408, 0.05961073877551021, 0.0635196357142857, -0.0283395306122449, -0.12215315102040816, -0.24626074999999997, -0.05374738775510204, 0.17296885918367347, -0.12703927244897958, -0.315643743877551, -0.28730419183673467, -0.2912131132653061, -0.26873693163265305, -0.1514699020408163, -0.0996769693877551, -0.11238089591836734, -0.09381361734693877, -0.06547408469387754, -0.08404136326530612, -0.07915524183673468, -0.07231466632653061, -0.07231466632653061, -0.06547408469387754, -0.04202068163265306, -0.03420288163265306, -0.012703927551020408, -0.011726702040816326, 0.023453404081632653, 0.052770157142857134, 0.0635196357142857, -0.026385078571428567, -0.025407854081632653, 0.014658377551020408, -0.026385078571428567, -0.13387985408163267, -0.08110969081632652, 
10, 0.8965153445200107, 1.166806902040816, 1.0641982602040814, 1.0387903326530612, 1.1140366959183674, 1.1580118836734694, 1.1306495081632653, 1.1023100051020407, 1.0182686244897958, 0.9449767091836734, 0.8951382734693878, 0.8922066010204082, 0.8873204795918367, 0.9010016183673469, 0.8980699459183673, 0.8814571336734693, 0.8707076673469386, 0.8335730489795917, 0.7856890622448979, 0.7876435102040815, 0.9254322244897958, 0.9869974489795917, 1.0124052785714286, 1.0212002969387755, 1.0720160540816326, 1.1951464051020406, 1.2283720285714286, 1.2127364408163264, 1.177556368367347, 1.1345584051020408, 1.1052416785714285, 1.1296722836734694, 1.0827655204081632, 1.0358586602040816, 1.0280408663265306, 1.0671299326530612, 1.0749477265306122, 1.0563804663265306, 1.031949763265306, 0.9537718244897959, 0.8980699459183673, 0.8394363948979592, 0.8443225163265304, 0.8609354255102041, 0.8824343581632652, 0.9068649642857143, 0.8462769642857142, 0.8101196673469387, 0.8159830132653061, 0.8755937887755102, 0.8795026857142856, 0.12703927244897958, 0.04788403265306122, 0.004886125510204081, 0.023453404081632653, 0.046906809183673466, 0.08404136326530612, 0.13094816938775508, 0.09088194489795919, 0.06938298775510203, 0.033225657142857135, 0.0283395306122449, 0.05472461224489796, 0.07817801122448978, 0.10260864183673468, 0.0869730418367347, 0.0703602112244898, 0.0635196357142857, 0.07817801122448978, 0.0918591693877551, 0.11238089591836734, 0.10944922346938774, 0.040066232653061216, 0.09869974489795917, 0.13974319897959184, 0.09381361734693877, 0.021498954081632653, 0.01759005306122449, 0.03908900612244898, 0.0635196357142857, 0.10651755102040815, -0.0635196357142857, -0.08110969081632652, -0.042997909183673466, -0.033225657142857135, -0.02736230612244898, -0.04202068163265306, -0.04788403265306122, -0.05374738775510204, -0.033225657142857135, -0.011726702040816326, 0.007817801020408162, -0.00195445, -0.03713455714285714, -0.04983848469387755, -0.0244306306122449, -0.007817801020408162, -0.010749477551020407, -0.040066232653061216, -0.08892749081632653, -0.09772252040816326, -0.2501696469387755, -0.2364884836734694, -0.25896466530612244, -0.18665001122448976, -0.14365209591836733, -0.12801649591836733, -0.12410759897959182, -0.1348570775510204, -0.10163141734693877, -0.029316754081632652, -0.008795026530612244, -0.01563560306122449, -0.012703927551020408, -0.01954450306122449, -0.029316754081632652, -0.01954450306122449, 0.010749477551020407, -0.01954450306122449, 0.01954450306122449, 0.014658377551020408, -0.03518010612244898, -0.04886126020408163, 0.016612828571428567, 0.036157332653061224, -0.13681152653061224, -0.12606204795918366, -0.0918591693877551, -0.09869974489795917, -0.07426911428571428, -0.13974319897959184, -0.2609191132653061, -0.3029398040816326, -0.3146665193877551, -0.21694399897959182, -0.1465837806122449, -0.10554031428571427, -0.12117592653061224, -0.08795026632653061, -0.09772252040816326, -0.09088194489795919, -0.08892749081632653, -0.0918591693877551, -0.06547408469387754, -0.04788403265306122, -0.03420288163265306, -0.03908900612244898, -0.03811178163265306, -0.007817801020408162, -0.0029316755102040816, -0.012703927551020408, 
11, 0.9216761980033213, 0.9049105153061223, 0.9576807214285713, 0.9586579459183673, 0.9733163091836733, 1.092537763265306, 1.2381442714285713, 1.240098719387755, 1.168761351020408, 1.1208772663265305, 1.1052416785714285, 1.1130594724489795, 1.1238089387755101, 1.1003555571428572, 1.0778794, 1.1032872295918366, 1.0641982602040814, 0.9801568785714285, 0.9273866734693877, 0.8785254612244897, 0.9049105153061223, 0.9234777765306121, 0.9127283091836734, 0.8814571336734693, 0.8384591704081633, 0.7974157530612244, 0.7817801653061224, 0.8150057887755101, 0.8609354255102041, 0.9019788428571428, 0.9879746724489796, 1.0299953153061223, 1.0641982602040814, 1.1501939928571427, 1.216645337755102, 1.2576888530612242, 1.1922147326530612, 1.2058958714285712, 1.1462850959183672, 1.0426992295918365, 1.0143597275510203, 0.9938380183673468, 1.0192458479591835, 1.060289363265306, 1.0827655204081632, 1.0808110724489794, 1.0299953153061223, 0.968430187755102, 0.8286869285714286, 0.7895979591836734, 0.7895979591836734, -0.07817801122448978, -0.025407854081632653, 0.04202068163265306, 0.02736230612244898, -0.1035858663265306, 0.04202068163265306, 0.18567278673469387, 0.1485382295918367, 0.0029316755102040816, -0.04886126020408163, -0.0009772255102040816, 0.12899372040816326, 0.15244712653061224, 0.1485382295918367, 0.11628979285714285, 0.07622356326530612, 0.003908901020408162, -0.011726702040816326, 0.004886125510204081, 0.052770157142857134, 0.033225657142857135, 0.014658377551020408, 0.010749477551020407, 0.007817801020408162, 0.032248430612244895, 0.05765628469387755, 0.10163141734693877, 0.05961073877551021, 0.046906809183673466, 0.025407854081632653, 0.03713455714285714, 0.06547408469387754, 0.09772252040816326, 0.07231466632653061, -0.11726701734693877, 0.23551125918367347, 0.1661282775510204, 0.09283639387755102, -0.04788403265306122, -0.05570183571428571, 0.016612828571428567, 0.007817801020408162, -0.11238089591836734, -0.09381361734693877, -0.04495235714285714, -0.012703927551020408, 0.03029398163265306, 0.036157332653061224, -0.007817801020408162, -0.0283395306122449, 0.016612828571428567, 0.010749477551020407, 0.016612828571428567, 0.033225657142857135, -0.02736230612244898, -0.2091261806122449, -0.26775970714285713, -0.24039740510204077, -0.23062513775510204, -0.2951220102040816, -0.2550557683673469, -0.16319660510204081, -0.1544015744897959, -0.14267487142857144, -0.14169764795918366, -0.1387659744897959, -0.10065419285714286, -0.0752463387755102, -0.04788403265306122, -0.007817801020408162, -0.0283395306122449, -0.026385078571428567, -0.016612828571428567, -0.032248430612244895, -0.004886125510204081, 0.010749477551020407, 0.04202068163265306, 0.0674285387755102, 0.07817801122448978, 0.07817801122448978, 0.06449686020408163, 0.01856727857142857, -0.03713455714285714, -0.14267487142857144, -0.1798094295918367, -0.1807866530612245, -0.1905589081632653, -0.18469556224489794, -0.19251335612244896, -0.2061945081632653, -0.22280734387755102, -0.21205785306122446, -0.14072042346938773, -0.11922147857142856, -0.09283639387755102, -0.04397513265306122, -0.03518010612244898, -0.05667906020408162, -0.040066232653061216, -0.040066232653061216, 
12, 0.8648047066470692, 0.8413908428571428, 0.8589809765306121, 0.8560493040816326, 0.7895979591836734, 0.783734613265306, 0.8032790979591836, 0.8843888071428571, 0.968430187755102, 1.051494344897959, 1.0778794, 1.0984011081632652, 1.132603957142857, 1.2234859081632652, 1.3202312040816326, 1.269415543877551, 0.9967696908163265, 0.9830885520408164, 1.0661527091836733, 1.2127364408163264, 1.1873286112244896, 1.1472623204081631, 1.0827655204081632, 1.0231547448979592, 0.9244549999999999, 0.853117631632653, 0.8345502734693876, 0.8159830132653061, 0.8159830132653061, 0.8462769642857142, 0.8912293765306121, 0.8804799102040817, 0.7817801653061224, 0.7583267346938775, 0.8492086367346937, 1.025109193877551, 1.0407447816326532, 1.0270636418367347, 1.0270636418367347, 1.0339042122448978, 1.2225086836734693, 1.3446618102040815, 1.3720241857142856, 1.2586660775510203, 1.0212002969387755, 1.0299953153061223, 1.107196126530612, 1.0524715693877549, 1.0055647091836732, 1.0192458479591835, 1.0446536785714284, -0.0674285387755102, -0.05570183571428571, 0.016612828571428567, 0.02736230612244898, 0.010749477551020407, -0.052770157142857134, -0.10456308979591837, -0.04202068163265306, 0.02736230612244898, 0.014658377551020408, -0.08599581734693877, -0.19153613265306121, -0.12117592653061224, 0.10065419285714286, 0.12801649591836733, 0.0674285387755102, -0.007817801020408162, -0.03420288163265306, 0.08599581734693877, 0.1465837806122449, 0.18469556224489794, 0.12899372040816326, 0.1153125693877551, 0.04592958469387755, 0.033225657142857135, 0.042997909183673466, 0.06547408469387754, 0.07231466632653061, 0.07622356326530612, 0.05765628469387755, 0.04104345714285714, 0.04983848469387755, 0.07915524183673468, 0.10554031428571427, 0.025407854081632653, -0.01368115306122449, 0.07133743571428572, 0.07133743571428572, 0.18176388979591837, 0.13778875102040813, -0.02052172857142857, -0.09381361734693877, -0.07133743571428572, 0.09283639387755102, 0.08892749081632653, 0.07622356326530612, -0.01856727857142857, -0.10065419285714286, -0.0830641387755102, -0.050815709183673466, -0.003908901020408162, 0.012703927551020408, 0.0283395306122449, -0.008795026530612244, 0.0009772255102040816, 0.03029398163265306, 0.03127120612244898, -0.023453404081632653, -0.007817801020408162, 0.012703927551020408, 0.04104345714285714, -0.036157332653061224, -0.16417382959183674, -0.28730419183673467, -0.27460027755102034, -0.2579874408163265, -0.21889844693877547, -0.1905589081632653, -0.12606204795918366, -0.1387659744897959, -0.13974319897959184, -0.1358343020408163, -0.12801649591836733, -0.0918591693877551, -0.033225657142857135, -0.03420288163265306, -0.026385078571428567, -0.01954450306122449, 0.0029316755102040816, 0.007817801020408162, 0.0, -0.03127120612244898, -0.007817801020408162, 0.06058796326530612, -0.07622356326530612, -0.006840576530612245, 0.0703602112244898, 0.0703602112244898, 0.0869730418367347, -0.05472461224489796, -0.07622356326530612, -0.3371426765306122, -0.3342110040816326, -0.2022856112244898, -0.24235185306122448, -0.27753194999999997, -0.2609191132653061, -0.16417382959183674, -0.11628979285714285, -0.07720078775510204, 
13, 0.9283520828184342, 0.9830885520408164, 0.9498628306122449, 0.8795026857142856, 0.8589809765306121, 0.8140285642857142, 0.8795026857142856, 0.9107738612244897, 0.9361816908163264, 0.9166372061224488, 0.86191265, 0.8306413765306122, 0.8834115826530612, 0.9840657755102039, 0.9879746724489796, 1.0641982602040814, 1.1023100051020407, 1.084719969387755, 1.092537763265306, 1.1394445265306121, 1.2049186469387754, 1.2234859081632652, 1.0387903326530612, 1.0182686244897958, 0.9899291214285714, 0.9879746724489796, 1.0387903326530612, 1.132603957142857, 1.0935149877551018, 1.0896060908163265, 0.9889518969387755, 0.9469311581632651, 0.8824343581632652, 0.8580037530612245, 0.8599582010204082, 0.8775482367346938, 0.8941610489795917, 0.9146827581632652, 0.8345502734693876, 0.7641900806122449, 0.7641900806122449, 0.840413619387755, 0.8961154979591837, 1.0065419336734693, 1.0026330367346938, 1.041722006122449, 1.1208772663265305, 1.2195770112244897, 1.3192539795918368, 1.2987322714285712, 1.0827655204081632, -0.021498954081632653, -0.011726702040816326, 0.025407854081632653, 0.04495235714285714, 0.02247617857142857, -0.032248430612244895, -0.03518010612244898, -0.008795026530612244, 0.026385078571428567, 0.009772251020408162, -0.02052172857142857, -0.09381361734693877, -0.07817801122448978, 0.010749477551020407, 0.009772251020408162, -0.07915524183673468, -0.19935393775510202, -0.2101034051020408, -0.10554031428571427, -0.01856727857142857, 0.10260864183673468, 0.03420288163265306, 0.029316754081632652, 0.05472461224489796, 0.04983848469387755, 0.04397513265306122, 0.1182442418367347, 0.11922147857142856, 0.10456308979591837, 0.0703602112244898, 0.03713455714285714, 0.03518010612244898, 0.08404136326530612, 0.09772252040816326, 0.10651755102040815, 0.10456308979591837, 0.08208691428571428, 0.04592958469387755, 0.061565187755102044, 0.061565187755102044, 0.09576806632653061, 0.10065419285714286, 0.07915524183673468, 0.061565187755102044, 0.08795026632653061, 0.12019870204081631, 0.04104345714285714, -0.1035858663265306, -0.09381361734693877, 0.06840576326530612, -0.0674285387755102, -0.06449686020408163, -0.07720078775510204, -0.07329189081632653, -0.0674285387755102, -0.025407854081632653, -0.011726702040816326, 0.0009772255102040816, 0.007817801020408162, 0.008795026530612244, -0.014658377551020408, -0.003908901020408162, -0.02247617857142857, -0.04104345714285714, 0.011726702040816326, 0.0283395306122449, -0.016612828571428567, -0.04397513265306122, -0.08501859387755101, -0.12606204795918366, -0.2364884836734694, -0.2521240959183673, -0.25407854387755097, -0.22964791326530612, -0.21694399897959182, -0.15733325918367347, -0.16026493265306122, -0.1671055020408163, -0.16319660510204081, -0.10651755102040815, -0.09283639387755102, -0.05863350918367346, -0.05961073877551021, -0.04886126020408163, -0.025407854081632653, -0.004886125510204081, -0.009772251020408162, -0.04495235714285714, -0.032248430612244895, -0.032248430612244895, -0.00195445, 0.025407854081632653, 0.014658377551020408, 0.05961073877551021, 0.08795026632653061, 0.03811178163265306, -0.12410759897959182, -0.24430630204081633, -0.31759819183673466, -0.15537879897959184, 
14, 0.947024314295646, 1.0827655204081632, 1.051494344897959, 1.041722006122449, 1.1228317142857143, 1.0896060908163265, 1.0290180908163264, 1.0544260183673468, 1.068107157142857, 1.0426992295918365, 0.9332500183673469, 0.8970927214285714, 0.8609354255102041, 0.8413908428571428, 0.8472541887755102, 0.8922066010204082, 0.8922066010204082, 0.8599582010204082, 0.8413908428571428, 0.8365047224489796, 0.8882977040816326, 0.8902521520408162, 0.9058877397959184, 0.9312955704081631, 0.9850429999999999, 1.0935149877551018, 1.1355356295918366, 1.2078503204081632, 1.2703927683673468, 1.2449848408163264, 1.0964466602040814, 1.1062189020408162, 1.107196126530612, 1.1374900775510204, 1.1335811806122447, 1.0368358846938774, 1.0124052785714286, 0.9801568785714285, 0.9215233275510204, 0.9107738612244897, 0.8775482367346938, 0.8306413765306122, 0.853117631632653, 0.885366030612245, 0.8922066010204082, 0.8951382734693878, 0.8267324795918367, 0.80132465, 0.7876435102040815, 0.8443225163265304, 0.9791796551020407, 0.06840576326530612, 0.1798094295918367, 0.050815709183673466, -0.00195445, -0.005863351020408163, -0.040066232653061216, -0.06254241224489795, -0.05179293265306122, -0.009772251020408162, 0.007817801020408162, 0.01368115306122449, 0.03811178163265306, 0.0244306306122449, 0.004886125510204081, -0.026385078571428567, -0.02052172857142857, -0.005863351020408163, -0.011726702040816326, -0.04104345714285714, -0.07622356326530612, -0.0703602112244898, -0.04202068163265306, -0.03127120612244898, -0.026385078571428567, -0.12215315102040816, -0.1485382295918367, 0.0009772255102040816, 0.22573901632653057, 0.285349743877551, -0.09283639387755102, -0.12899372040816326, -0.10065419285714286, 0.03518010612244898, 0.12703927244897958, 0.18958168367346936, 0.1719916357142857, 0.14951545408163264, 0.0918591693877551, 0.042997909183673466, 0.005863351020408163, 0.06547408469387754, 0.0752463387755102, 0.09283639387755102, 0.09381361734693877, 0.050815709183673466, 0.042997909183673466, 0.04592958469387755, 0.05374738775510204, 0.05863350918367346, 0.08599581734693877, -0.15537879897959184, -0.19642226530612242, -0.2579874408163265, -0.3019625795918367, -0.3146665193877551, -0.22964791326530612, -0.15342435102040816, -0.14072042346938773, -0.11042644795918366, -0.09869974489795917, -0.1035858663265306, -0.0918591693877551, -0.0752463387755102, -0.06645131428571427, -0.046906809183673466, -0.04202068163265306, -0.032248430612244895, -0.026385078571428567, -0.006840576530612245, 0.023453404081632653, 0.01759005306122449, 0.007817801020408162, 0.009772251020408162, 0.033225657142857135, 0.052770157142857134, 0.00195445, -0.19935393775510202, -0.3215070887755102, -0.3371426765306122, -0.3185754163265306, -0.3615733071428571, -0.30000813163265305, -0.18176388979591837, -0.11726701734693877, -0.1153125693877551, -0.12215315102040816, -0.11042644795918366, -0.09869974489795917, -0.061565187755102044, -0.04397513265306122, -0.05472461224489796, -0.05472461224489796, -0.03908900612244898, -0.026385078571428567, -0.005863351020408163, -0.008795026530612244, -0.025407854081632653, -0.0009772255102040816, 0.08501859387755101, 0.12703927244897958, 
15, 0.9091087451957982, 1.0290180908163264, 1.024131969387755, 1.109150575510204, 1.294823374489796, 1.2508481867346937, 1.2645294224489796, 1.2440076163265306, 1.1912375081632653, 1.0827655204081632, 0.9674529642857141, 0.9430222612244897, 1.008496381632653, 1.0426992295918365, 1.0358586602040816, 1.0143597275510203, 0.9273866734693877, 0.8970927214285714, 0.8452997397959183, 0.8257552551020407, 0.8355274979591836, 0.8980699459183673, 0.8990471704081632, 0.9097966367346938, 0.8863432551020408, 0.8052335469387755, 0.7866662867346939, 0.8648443224489795, 0.9264094489795917, 0.9654985153061224, 1.084719969387755, 1.1267406112244898, 1.107196126530612, 1.1374900775510204, 1.2381442714285713, 1.260620525510204, 1.1394445265306121, 1.039767557142857, 1.062243812244898, 1.1521485387755102, 1.1238089387755101, 1.1101277989795917, 1.0554032418367347, 1.024131969387755, 0.9840657755102039, 0.9156599826530613, 0.853117631632653, 0.793506856122449, 0.809142443877551, 0.8316186010204081, 0.8677759948979591, 0.08501859387755101, 0.08599581734693877, 0.10554031428571427, 0.02052172857142857, 0.061565187755102044, 0.1358343020408163, 0.13192540510204082, 0.03029398163265306, -0.05374738775510204, 0.05374738775510204, 0.08110969081632652, -0.008795026530612244, -0.0869730418367347, -0.11238089591836734, -0.0918591693877551, -0.042997909183673466, -0.02052172857142857, 0.0283395306122449, 0.04104345714285714, 0.008795026530612244, -0.01954450306122449, -0.0009772255102040816, 0.011726702040816326, -0.009772251020408162, -0.03420288163265306, -0.08501859387755101, -0.06547408469387754, -0.05374738775510204, -0.03713455714285714, -0.023453404081632653, -0.05570183571428571, -0.09869974489795917, -0.05667906020408162, 0.04886126020408163, 0.09869974489795917, 0.05667906020408162, 0.0029316755102040816, 0.01368115306122449, 0.052770157142857134, 0.1153125693877551, 0.15831048367346937, 0.16026493265306122, 0.14462933265306122, 0.10260864183673468, 0.03420288163265306, 0.01759005306122449, 0.06840576326530612, 0.11042644795918366, 0.11335812040816325, 0.09381361734693877, 0.0703602112244898, 0.09381361734693877, -0.012703927551020408, -0.28046362244897954, -0.15733325918367347, -0.2022856112244898, -0.18860445918367344, -0.23746570714285714, -0.27460027755102034, -0.2882814408163265, -0.24235185306122448, -0.20130838673469387, -0.13094816938775508, -0.1182442418367347, -0.09576806632653061, -0.06449686020408163, -0.05765628469387755, -0.05863350918367346, -0.05472461224489796, -0.04592958469387755, -0.01563560306122449, -0.005863351020408163, -0.0029316755102040816, -0.012703927551020408, -0.04788403265306122, -0.012703927551020408, 0.01759005306122449, 0.025407854081632653, 0.01954450306122449, 0.03518010612244898, -0.029316754081632652, -0.16026493265306122, -0.19739948979591834, -0.15537879897959184, -0.21498954999999997, -0.23453403469387754, -0.30782592551020405, -0.27460027755102034, -0.15244712653061224, -0.1358343020408163, -0.13387985408163267, -0.1348570775510204, -0.12019870204081631, -0.08892749081632653, -0.07622356326530612, -0.06840576326530612, -0.04983848469387755, -0.03908900612244898, -0.021498954081632653, -0.00195445, 
16, 0.8274506496103223, 0.8677759948979591, 0.8882977040816326, 0.7612584071428571, 0.7856890622448979, 0.8228235826530611, 0.9156599826530613, 0.9791796551020407, 0.9997013632653061, 1.0202230724489796, 1.0505170234693877, 1.1824424897959183, 1.2674610959183674, 1.300686719387755, 1.1159911448979591, 1.0114280540816327, 1.0065419336734693, 1.060289363265306, 1.1042644540816327, 1.0641982602040814, 1.0739705030612245, 1.107196126530612, 1.0886288663265307, 1.0700616061224488, 0.991883569387755, 0.8980699459183673, 0.8824343581632652, 0.8589809765306121, 0.8658215469387753, 0.8941610489795917, 0.9058877397959184, 0.8755937887755102, 0.8462769642857142, 0.8492086367346937, 0.8609354255102041, 0.900024394897959, 0.9205461030612245, 0.9967696908163265, 1.0700616061224488, 1.1159911448979591, 1.1306495081632653, 1.1941691806122448, 1.285051131632653, 1.1951464051020406, 1.1863513867346938, 1.1208772663265305, 1.0563804663265306, 0.9166372061224488, 0.8873204795918367, 1.0065419336734693, 1.1111050234693878, 0.09381361734693877, 0.03908900612244898, 0.04397513265306122, 0.05667906020408162, 0.05472461224489796, 0.029316754081632652, -0.021498954081632653, -0.036157332653061224, 0.08599581734693877, 0.12606204795918366, 0.1905589081632653, 0.1514699020408163, -0.11042644795918366, -0.023453404081632653, 0.0996769693877551, 0.19446781734693877, 0.07720078775510204, -0.014658377551020408, -0.05863350918367346, -0.05667906020408162, -0.03127120612244898, -0.03420288163265306, -0.040066232653061216, -0.033225657142857135, 0.007817801020408162, 0.021498954081632653, 0.011726702040816326, -0.02052172857142857, -0.042997909183673466, -0.04104345714285714, -0.008795026530612244, 0.0, -0.0244306306122449, -0.05374738775510204, -0.05961073877551021, -0.04886126020408163, -0.050815709183673466, 0.01368115306122449, 0.0283395306122449, -0.06058796326530612, -0.02247617857142857, 0.05961073877551021, 0.01954450306122449, -0.07329189081632653, 0.050815709183673466, 0.13192540510204082, 0.2101034051020408, 0.14072042346938773, 0.04983848469387755, 0.12117592653061224, -0.00195445, -0.003908901020408162, -0.04592958469387755, 0.009772251020408162, 0.026385078571428567, -0.008795026530612244, -0.033225657142857135, 0.0009772255102040816, 0.1182442418367347, 0.12801649591836733, 0.005863351020408163, -0.07817801122448978, -0.20814895612244896, -0.2990309071428571, -0.21792122346938775, -0.16026493265306122, -0.24235185306122448, -0.2550557683673469, -0.2091261806122449, -0.17003718673469387, -0.10749477551020407, -0.09283639387755102, -0.09088194489795919, -0.08404136326530612, -0.05374738775510204, -0.04202068163265306, -0.040066232653061216, -0.03420288163265306, -0.01563560306122449, -0.005863351020408163, 0.00195445, 0.003908901020408162, 0.02247617857142857, 0.03713455714285714, -0.004886125510204081, -0.007817801020408162, 0.0029316755102040816, 0.04592958469387755, 0.11042644795918366, 0.036157332653061224, -0.040066232653061216, -0.07720078775510204, -0.13778875102040813, -0.16319660510204081, -0.26775970714285713, -0.2951220102040816, -0.315643743877551, -0.24430630204081633, -0.1387659744897959, -0.05863350918367346, 
17, 0.6774363285795397, 1.0720160540816326, 1.0270636418367347, 0.9928607938775509, 0.9625668428571429, 0.9234777765306121, 0.9088194122448979, 0.8755937887755102, 0.8589809765306121, 0.7905751836734694, 0.8482314132653062, 0.8795026857142856, 0.8834115826530612, 0.8795026857142856, 0.8912293765306121, 0.9352044673469386, 0.9694074122448979, 0.9645212908163265, 0.9703846367346938, 1.0905833142857142, 1.2801650102040816, 1.2029641989795918, 1.2029641989795918, 1.1677841265306121, 1.0866744173469387, 1.0163141755102039, 0.9371589153061223, 0.9557262734693877, 0.9889518969387755, 0.9997013632653061, 1.075924951020408, 1.0524715693877549, 1.0407447816326532, 1.0065419336734693, 0.9791796551020407, 0.9439994846938775, 0.9488856061224489, 0.9498628306122449, 0.9518173765306123, 0.9459539336734692, 0.9254322244897958, 0.9606123938775509, 0.9371589153061223, 0.9049105153061223, 0.8658215469387753, 0.9176144306122449, 0.9381361397959184, 0.9459539336734692, 0.9469311581632651, 0.9567034969387754, 0.9821113275510203, 0.1465837806122449, 0.1182442418367347, 0.04788403265306122, 0.0009772255102040816, 0.02052172857142857, 0.04886126020408163, 0.09772252040816326, 0.10749477551020407, 0.06840576326530612, 0.07915524183673468, 0.08599581734693877, 0.10065419285714286, 0.11238089591836734, 0.0752463387755102, 0.03811178163265306, 0.050815709183673466, 0.05765628469387755, 0.07622356326530612, 0.10554031428571427, 0.0869730418367347, 0.033225657142857135, 0.033225657142857135, 0.03029398163265306, 0.1778549806122449, 0.18665001122448976, 0.04886126020408163, 0.00195445, -0.05374738775510204, -0.07426911428571428, -0.02736230612244898, 0.014658377551020408, 0.009772251020408162, -0.003908901020408162, 0.0009772255102040816, -0.005863351020408163, -0.006840576530612245, 0.009772251020408162, 0.01563560306122449, 0.050815709183673466, 0.10163141734693877, 0.09869974489795917, 0.06840576326530612, 0.050815709183673466, 0.03029398163265306, -0.008795026530612244, 0.04788403265306122, 0.05179293265306122, 0.01954450306122449, 0.0029316755102040816, -0.0029316755102040816, -0.09674529081632652, -0.08404136326530612, -0.04592958469387755, -0.036157332653061224, -0.05765628469387755, -0.05667906020408162, -0.06547408469387754, -0.07817801122448978, -0.08501859387755101, 0.03127120612244898, 0.02247617857142857, -0.016612828571428567, -0.005863351020408163, -0.061565187755102044, 0.003908901020408162, -0.00195445, 0.009772251020408162, 0.04104345714285714, -0.07133743571428572, -0.26775970714285713, -0.2794863979591837, -0.2794863979591837, -0.08990471428571428, -0.10456308979591837, -0.20717173163265304, -0.29023588877551015, -0.26873693163265305, -0.22085289591836732, -0.19837671428571427, -0.10554031428571427, -0.0703602112244898, -0.07231466632653061, -0.05765628469387755, -0.03811178163265306, -0.046906809183673466, -0.05179293265306122, -0.04397513265306122, -0.04397513265306122, -0.03029398163265306, -0.014658377551020408, 0.023453404081632653, -0.003908901020408162, -0.02736230612244898, -0.023453404081632653, 0.010749477551020407, 0.026385078571428567, 0.02052172857142857, 0.0244306306122449, 0.036157332653061224, 0.04788403265306122, 
18, 0.6539494373103217, 0.9821113275510203, 1.0886288663265307, 1.361274719387755, 1.485382293877551, 1.2909144775510204, 0.932272793877551, 0.8628898734693877, 0.9703846367346938, 1.0749477265306122, 1.1472623204081631, 1.0778794, 1.031949763265306, 0.9733163091836733, 0.9567034969387754, 0.8980699459183673, 0.8658215469387753, 0.8882977040816326, 0.9508401520408163, 0.9518173765306123, 0.941067812244898, 0.9019788428571428, 0.8765710132653061, 0.8150057887755101, 0.8550720795918366, 0.8931838244897958, 0.9195688795918366, 1.0045874846938774, 0.968430187755102, 0.9508401520408163, 0.9821113275510203, 1.1413989744897959, 1.3817964285714286, 1.4892911908163264, 1.0974238846938775, 1.0163141755102039, 1.0446536785714284, 1.0641982602040814, 0.9860202244897959, 0.9420450367346939, 1.0163141755102039, 1.09156053877551, 1.0573576908163265, 1.0573576908163265, 0.9928607938775509, 0.9342272428571428, 0.9088194122448979, 0.8912293765306121, 0.8922066010204082, 0.9117510857142855, 0.9244549999999999, -0.0029316755102040816, 0.012703927551020408, 0.18860445918367344, 0.3146665193877551, 0.3215070887755102, -0.09479084183673468, -0.19251335612244896, -0.08110969081632652, -0.006840576530612245, 0.14072042346938773, 0.1485382295918367, 0.06254241224489795, 0.06938298775510203, 0.061565187755102044, 0.04983848469387755, 0.05570183571428571, 0.07133743571428572, 0.08599581734693877, 0.08404136326530612, 0.0752463387755102, 0.03518010612244898, 0.0244306306122449, 0.05765628469387755, 0.11726701734693877, 0.10944922346938774, 0.0996769693877551, 0.09674529081632652, 0.06938298775510203, 0.1475610051020408, 0.20814895612244896, 0.1671055020408163, -0.007817801020408162, -0.17003718673469387, -0.0674285387755102, 0.2941447857142857, 0.2579874408163265, 0.1739460836734694, 0.005863351020408163, -0.05961073877551021, -0.10944922346938774, -0.06058796326530612, 0.021498954081632653, 0.021498954081632653, 0.033225657142857135, 0.04592958469387755, 0.040066232653061216, 0.014658377551020408, 0.003908901020408162, 0.004886125510204081, 0.040066232653061216, 0.04788403265306122, 0.009772251020408162, -0.31759819183673466, -0.3908900826530612, -0.3215070887755102, -0.25310131938775504, -0.1485382295918367, -0.12019870204081631, -0.13681152653061224, -0.10163141734693877, -0.12997094489795916, -0.10944922346938774, -0.0752463387755102, -0.07133743571428572, -0.07817801122448978, -0.061565187755102044, -0.03811178163265306, -0.02736230612244898, -0.03908900612244898, -0.052770157142857134, -0.06254241224489795, -0.05863350918367346, -0.05472461224489796, -0.01563560306122449, 0.012703927551020408, 0.03029398163265306, 0.08013246632653061, 0.0830641387755102, 0.06645131428571427, 0.04788403265306122, -0.08892749081632653, -0.3185754163265306, -0.4182523612244898, -0.15342435102040816, -0.11140367244897958, -0.12215315102040816, -0.1661282775510204, -0.27264582857142855, -0.2560329928571428, -0.12215315102040816, -0.07231466632653061, -0.033225657142857135, -0.033225657142857135, -0.050815709183673466, -0.05570183571428571, -0.04788403265306122, -0.04983848469387755, -0.04592958469387755, -0.032248430612244895, -0.007817801020408162, 
19, 0.7610504397304367, 0.9010016183673469, 0.8814571336734693, 0.8843888071428571, 0.8570265285714285, 0.8795026857142856, 0.9234777765306121, 0.9850429999999999, 1.0544260183673468, 1.0212002969387755, 1.109150575510204, 1.1413989744897959, 1.1853741622448979, 1.2195770112244897, 1.1316267326530611, 0.9957924663265305, 1.009473606122449, 1.0866744173469387, 1.1746246959183673, 1.148239544897959, 1.0808110724489794, 1.0436764540816326, 1.0114280540816327, 0.9449767091836734, 0.8873204795918367, 0.8521404071428571, 0.8677759948979591, 0.8970927214285714, 0.9088194122448979, 0.9166372061224488, 0.8638670979591836, 0.7886207346938775, 0.8130513408163265, 0.8423680673469387, 0.9645212908163265, 1.0407447816326532, 1.001655812244898, 0.9694074122448979, 0.9860202244897959, 1.108173351020408, 1.2821194591836733, 1.3055728408163265, 1.2508481867346937, 1.1208772663265305, 1.107196126530612, 1.0876516418367348, 1.048562575510204, 1.000678587755102, 0.9948152428571428, 1.0290180908163264, 1.0749477265306122, 0.05667906020408162, 0.05179293265306122, 0.033225657142857135, -0.03811178163265306, -0.0830641387755102, -0.08599581734693877, -0.029316754081632652, 0.07915524183673468, 0.050815709183673466, -0.05667906020408162, -0.0674285387755102, -0.03029398163265306, 0.0918591693877551, 0.19642226530612242, 0.09479084183673468, -0.05179293265306122, -0.0703602112244898, -0.02052172857142857, 0.0830641387755102, 0.13192540510204082, 0.14072042346938773, 0.12997094489795916, 0.07915524183673468, 0.012703927551020408, 0.0283395306122449, 0.08892749081632653, 0.08501859387755101, 0.06840576326530612, 0.04397513265306122, 0.032248430612244895, 0.05961073877551021, 0.07622356326530612, 0.08892749081632653, 0.09869974489795917, 0.06058796326530612, 0.03713455714285714, 0.10456308979591837, 0.1544015744897959, 0.2579874408163265, 0.12117592653061224, -0.040066232653061216, -0.11628979285714285, 0.04886126020408163, 0.1719916357142857, 0.07817801122448978, 0.03029398163265306, -0.046906809183673466, -0.07329189081632653, -0.09479084183673468, -0.04397513265306122, -0.01954450306122449, -0.02052172857142857, -0.008795026530612244, -0.003908901020408162, 0.040066232653061216, 0.02052172857142857, 0.008795026530612244, 0.006840576530612245, 0.036157332653061224, 0.01368115306122449, -0.0244306306122449, -0.1807866530612245, -0.30978037346938775, -0.2951220102040816, -0.25407854387755097, -0.24235185306122448, -0.18567278673469387, -0.13094816938775508, -0.14560655714285714, -0.09283639387755102, -0.0674285387755102, -0.04495235714285714, -0.003908901020408162, -0.008795026530612244, -0.021498954081632653, -0.003908901020408162, 0.016612828571428567, 0.01954450306122449, 0.011726702040816326, -0.004886125510204081, 0.0009772255102040816, 0.0029316755102040816, 0.023453404081632653, 0.03713455714285714, -0.033225657142857135, 0.021498954081632653, 0.13290262959183674, 0.16905996224489794, 0.0996769693877551, -0.08110969081632652, -0.2022856112244898, -0.3596188581632653, -0.17296885918367347, -0.16026493265306122, -0.1622193806122449, -0.28339529489795917, -0.26482803469387756, -0.2198756714285714, -0.14560655714285714, -0.11042644795918366, 
20, 0.890315652487692, 0.9782024306122449, 0.9342272428571428, 0.9225005520408163, 0.8824343581632652, 0.8609354255102041, 0.8795026857142856, 0.9225005520408163, 0.9215233275510204, 0.8834115826530612, 0.8804799102040817, 0.8785254612244897, 0.8804799102040817, 0.8795026857142856, 0.9205461030612245, 1.0036102602040815, 1.101332781632653, 1.241075943877551, 1.2743016653061223, 1.1189228173469385, 1.0524715693877549, 1.0114280540816327, 0.976247981632653, 0.9811341030612244, 0.9948152428571428, 1.048562575510204, 1.1042644540816327, 1.1443306479591837, 1.0739705030612245, 1.0339042122448978, 0.947908381632653, 0.8951382734693878, 0.8707076673469386, 0.8472541887755102, 0.8492086367346937, 0.8707076673469386, 0.8550720795918366, 0.775916819387755, 0.7866662867346939, 0.8150057887755101, 0.8726621163265306, 0.9664757397959183, 1.0260864183673468, 1.0133825030612245, 1.0212002969387755, 1.1648524540816327, 1.3270717734693878, 1.3798419795918366, 1.2049186469387754, 1.1159911448979591, 1.0446536785714284, -0.004886125510204081, 0.016612828571428567, 0.025407854081632653, 0.040066232653061216, 0.026385078571428567, -0.0009772255102040816, 0.0, -0.003908901020408162, -0.006840576530612245, -0.003908901020408162, -0.016612828571428567, -0.05765628469387755, -0.061565187755102044, -0.06645131428571427, 0.003908901020408162, 0.025407854081632653, 0.01856727857142857, 0.06449686020408163, -0.04495235714285714, -0.20424005918367344, -0.13974319897959184, 0.1475610051020408, 0.1788322051020408, 0.1544015744897959, 0.05374738775510204, 0.003908901020408162, 0.02247617857142857, 0.05667906020408162, 0.0674285387755102, 0.03713455714285714, -0.0029316755102040816, 0.007817801020408162, 0.10163141734693877, 0.12997094489795916, 0.13290262959183674, 0.06938298775510203, 0.050815709183673466, 0.09869974489795917, 0.11628979285714285, 0.14072042346938773, 0.1485382295918367, 0.12997094489795916, 0.12997094489795916, 0.14267487142857144, 0.12019870204081631, -0.0918591693877551, -0.11238089591836734, 0.05961073877551021, 0.1739460836734694, 0.05179293265306122, -0.07133743571428572, -0.0752463387755102, -0.07817801122448978, -0.08892749081632653, -0.0674285387755102, -0.06254241224489795, -0.04886126020408163, -0.05570183571428571, -0.05667906020408162, -0.050815709183673466, -0.046906809183673466, -0.06254241224489795, -0.04788403265306122, -0.02247617857142857, 0.014658377551020408, 0.0283395306122449, -0.11335812040816325, -0.19935393775510202, -0.1807866530612245, -0.19446781734693877, -0.2433290775510204, -0.2706913806122449, -0.2482151989795918, -0.22085289591836732, -0.1807866530612245, -0.16124215612244897, -0.1710144112244898, -0.14072042346938773, -0.12215315102040816, -0.09772252040816326, -0.0703602112244898, -0.050815709183673466, -0.03908900612244898, -0.02052172857142857, -0.008795026530612244, -0.02247617857142857, -0.02736230612244898, -0.029316754081632652, -0.029316754081632652, -0.012703927551020408, -0.003908901020408162, 0.04397513265306122, 0.08404136326530612, 0.10456308979591837, -0.0752463387755102, -0.2609191132653061, -0.30978037346938775, -0.22476179285714287, -0.20033116224489794, -0.2824180714285714, 
21, 0.838781983812033, 1.0720160540816326, 1.0280408663265306, 1.009473606122449, 1.0221775214285713, 1.039767557142857, 1.0426992295918365, 1.025109193877551, 0.9342272428571428, 0.832595825510204, 0.8179374612244898, 0.8384591704081633, 0.8765710132653061, 0.9049105153061223, 0.9078421887755102, 0.8765710132653061, 0.8335730489795917, 0.8335730489795917, 0.8677759948979591, 0.9752707581632653, 0.9694074122448979, 0.9869974489795917, 1.0426992295918365, 1.0426992295918365, 1.0935149877551018, 1.3446618102040815, 1.3622519438775509, 1.2889600285714284, 1.148239544897959, 1.1189228173469385, 1.039767557142857, 1.0466081265306122, 1.083742744897959, 1.1150139204081633, 1.0661527091836733, 0.9352044673469386, 0.9205461030612245, 0.9205461030612245, 0.8785254612244897, 0.8394363948979592, 0.8355274979591836, 0.8540948561224488, 0.8814571336734693, 0.9137055336734693, 0.8540948561224488, 0.8208691346938775, 0.8306413765306122, 0.8716848918367347, 0.9361816908163264, 0.9821113275510203, 1.0036102602040815, -0.016612828571428567, -0.09088194489795919, -0.12899372040816326, -0.07622356326530612, -0.052770157142857134, -0.032248430612244895, -0.029316754081632652, 0.005863351020408163, 0.03127120612244898, 0.029316754081632652, 0.0, -0.016612828571428567, -0.011726702040816326, 0.01563560306122449, 0.01954450306122449, -0.02052172857142857, -0.03029398163265306, -0.029316754081632652, -0.0029316755102040816, 0.012703927551020408, 0.004886125510204081, -0.08990471428571428, -0.18469556224489794, -0.22085289591836732, 0.0830641387755102, 0.1719916357142857, 0.24626074999999997, 0.11922147857142856, -0.07231466632653061, -0.08501859387755101, -0.021498954081632653, 0.10944922346938774, 0.1876272357142857, 0.1622193806122449, 0.08990471428571428, 0.07720078775510204, 0.04397513265306122, 0.03518010612244898, 0.05374738775510204, 0.07720078775510204, 0.0996769693877551, 0.0869730418367347, 0.033225657142857135, 0.005863351020408163, 0.046906809183673466, 0.0869730418367347, 0.08599581734693877, 0.026385078571428567, -0.012703927551020408, 0.021498954081632653, -0.2667824836734694, -0.2736230530612245, -0.14072042346938773, -0.10065419285714286, -0.08892749081632653, -0.05570183571428571, -0.05863350918367346, -0.026385078571428567, -0.03127120612244898, -0.03029398163265306, -0.023453404081632653, -0.006840576530612245, 0.008795026530612244, 0.009772251020408162, 0.005863351020408163, 0.01954450306122449, 0.03811178163265306, 0.05765628469387755, -0.0009772255102040816, 0.005863351020408163, 0.05179293265306122, 0.08599581734693877, 0.0635196357142857, 0.02247617857142857, -0.16515105306122446, -0.25896466530612244, -0.37525447040816323, -0.3127120469387755, -0.2794863979591837, -0.16417382959183674, -0.13290262959183674, -0.12019870204081631, -0.10163141734693877, -0.11238089591836734, -0.09088194489795919, -0.07915524183673468, -0.033225657142857135, -0.03029398163265306, -0.05570183571428571, -0.04886126020408163, -0.025407854081632653, -0.007817801020408162, 0.01368115306122449, 0.008795026530612244, -0.008795026530612244, 0.0283395306122449, 0.05863350918367346, 0.011726702040816326, 0.05961073877551021, 0.08110969081632652, 
22, 0.8981314179511862, 0.991883569387755, 1.0339042122448978, 1.2225086836734693, 1.3280489979591836, 1.4570427918367346, 0.9938380183673468, 0.9909063459183672, 1.0671299326530612, 1.084719969387755, 1.0143597275510203, 1.0143597275510203, 1.0358586602040816, 1.076902175510204, 1.0280408663265306, 0.9576807214285713, 0.9117510857142855, 0.8902521520408162, 0.8824343581632652, 0.8912293765306121, 0.9195688795918366, 0.9293411214285714, 0.8755937887755102, 0.8755937887755102, 0.8384591704081633, 0.8423680673469387, 0.8394363948979592, 0.9205461030612245, 0.9664757397959183, 1.075924951020408, 1.0563804663265306, 1.0260864183673468, 1.0348814357142857, 1.047585351020408, 1.1863513867346938, 1.3378212408163264, 1.2596433020408162, 1.0192458479591835, 1.048562575510204, 1.0944922112244897, 1.2000325265306122, 1.1413989744897959, 1.0817882969387753, 0.9703846367346938, 0.9293411214285714, 0.8746165642857142, 0.8452997397959183, 0.8521404071428571, 0.8804799102040817, 0.8951382734693878, 0.9127283091836734, 0.13290262959183674, 0.1788322051020408, 0.20521728367346936, 0.09674529081632652, -0.28925866530612243, 0.1622193806122449, 0.2394201806122449, 0.18274111428571427, 0.09772252040816326, -0.05472461224489796, -0.13681152653061224, -0.0869730418367347, -0.0029316755102040816, 0.010749477551020407, -0.02052172857142857, 0.007817801020408162, 0.02052172857142857, 0.01368115306122449, -0.005863351020408163, -0.01759005306122449, 0.005863351020408163, 0.032248430612244895, 0.032248430612244895, -0.0009772255102040816, -0.01759005306122449, -0.08013246632653061, 0.006840576530612245, 0.02736230612244898, 0.01563560306122449, 0.01563560306122449, -0.06547408469387754, -0.17296885918367347, -0.15733325918367347, 0.004886125510204081, 0.21498954999999997, 0.2785091744897959, -0.07231466632653061, -0.11433534489795917, -0.08013246632653061, 0.05179293265306122, 0.13778875102040813, 0.13387985408163267, 0.07720078775510204, 0.06449686020408163, 0.025407854081632653, 0.036157332653061224, 0.061565187755102044, 0.05961073877551021, 0.05374738775510204, 0.03908900612244898, 0.11726701734693877, 0.11433534489795917, -0.04495235714285714, -0.17296885918367347, -0.4974076214285714, -0.23257958673469384, -0.1778549806122449, -0.1710144112244898, -0.28730419183673467, -0.28730419183673467, -0.1798094295918367, -0.1358343020408163, -0.10163141734693877, -0.0918591693877551, -0.09479084183673468, -0.07133743571428572, -0.07133743571428572, -0.06058796326530612, -0.05863350918367346, -0.04397513265306122, -0.03908900612244898, -0.04983848469387755, -0.04983848469387755, -0.021498954081632653, -0.010749477551020407, -0.0009772255102040816, 0.050815709183673466, 0.06254241224489795, 0.04397513265306122, 0.04495235714285714, 0.03420288163265306, -0.007817801020408162, -0.046906809183673466, -0.18274111428571427, -0.3254159857142857, -0.3850267132653061, -0.3576644102040816, -0.23551125918367347, -0.1798094295918367, -0.11335812040816325, -0.08795026632653061, -0.09772252040816326, -0.08013246632653061, -0.06254241224489795, -0.042997909183673466, -0.032248430612244895, -0.040066232653061216, -0.03029398163265306, -0.01856727857142857, 0.007817801020408162, 
23, 0.9029163442088788, 0.9127283091836734, 0.8736393397959183, 0.8159830132653061, 0.8179374612244898, 0.8355274979591836, 0.8570265285714285, 0.9205461030612245, 1.007519157142857, 1.0260864183673468, 1.107196126530612, 1.1863513867346938, 1.323162876530612, 1.2498709622448978, 1.0876516418367348, 1.1853741622448979, 1.23325815, 1.1834197142857141, 1.0339042122448978, 0.9391133642857142, 0.968430187755102, 1.0036102602040815, 1.032926987755102, 1.0524715693877549, 1.0436764540816326, 0.9381361397959184, 0.9039332918367347, 0.8580037530612245, 0.8609354255102041, 0.8843888071428571, 0.9166372061224488, 0.9107738612244897, 0.9088194122448979, 0.8912293765306121, 0.868753219387755, 0.832595825510204, 0.8413908428571428, 0.8775482367346938, 0.9567034969387754, 1.0544260183673468, 1.1208772663265305, 1.1492167683673469, 1.2185997867346938, 1.2987322714285712, 1.2586660775510203, 1.101332781632653, 0.9606123938775509, 0.9586579459183673, 0.9948152428571428, 1.0446536785714284, 1.1003555571428572, 0.03908900612244898, 0.012703927551020408, 0.021498954081632653, 0.05570183571428571, 0.07720078775510204, 0.07426911428571428, 0.046906809183673466, 0.011726702040816326, 0.04397513265306122, 0.10944922346938774, 0.10163141734693877, -0.046906809183673466, -0.09772252040816326, 0.12899372040816326, 0.19153613265306121, 0.1807866530612245, 0.04788403265306122, -0.011726702040816326, 0.07231466632653061, 0.07231466632653061, 0.036157332653061224, -0.033225657142857135, -0.061565187755102044, -0.04495235714285714, 0.040066232653061216, 0.04202068163265306, 0.01563560306122449, -0.023453404081632653, -0.033225657142857135, -0.01954450306122449, 0.005863351020408163, 0.016612828571428567, 0.04495235714285714, 0.05179293265306122, 0.03420288163265306, -0.12899372040816326, -0.1485382295918367, -0.0869730418367347, 0.023453404081632653, 0.06840576326530612, 0.042997909183673466, 0.061565187755102044, 0.04104345714285714, -0.1544015744897959, -0.12606204795918366, 0.10260864183673468, 0.13778875102040813, 0.13094816938775508, 0.05961073877551021, 0.023453404081632653, 0.007817801020408162, -0.012703927551020408, 0.011726702040816326, 0.010749477551020407, 0.026385078571428567, 0.040066232653061216, 0.05179293265306122, 0.032248430612244895, 0.04983848469387755, -0.04886126020408163, -0.15537879897959184, -0.27264582857142855, -0.0830641387755102, -0.14072042346938773, -0.13387985408163267, -0.18665001122448976, -0.2560329928571428, -0.3029398040816326, -0.29023588877551015, -0.21401232653061222, -0.18567278673469387, -0.14169764795918366, -0.1182442418367347, -0.09772252040816326, -0.07915524183673468, -0.07915524183673468, -0.07720078775510204, -0.0703602112244898, -0.07231466632653061, -0.042997909183673466, -0.021498954081632653, -0.00195445, 0.008795026530612244, 0.009772251020408162, -0.0029316755102040816, 0.05863350918367346, 0.04788403265306122, 0.033225657142857135, 0.007817801020408162, -0.006840576530612245, -0.2511468714285714, -0.2667824836734694, -0.1934905806122449, -0.09088194489795919, -0.20033116224489794, -0.25407854387755097, -0.27655472551020405, -0.2824180714285714, -0.23257958673469384, -0.1544015744897959, 
24, 0.8757069125893444, 1.032926987755102, 1.0114280540816327, 0.9615896183673468, 0.9332500183673469, 0.8462769642857142, 0.823800807142857, 0.8413908428571428, 0.8814571336734693, 0.9010016183673469, 0.8413908428571428, 0.7749395469387754, 0.784711837755102, 0.8492086367346937, 0.9527945999999998, 1.0260864183673468, 1.000678587755102, 0.9742935336734694, 0.9664757397959183, 1.0378131091836733, 1.332935119387755, 1.4668150336734693, 1.3221856530612244, 0.9508401520408163, 1.0524715693877549, 1.1208772663265305, 1.061266587755102, 0.9694074122448979, 0.9625668428571429, 0.9830885520408164, 1.0368358846938774, 1.024131969387755, 0.9439994846938775, 0.9107738612244897, 0.8785254612244897, 0.8755937887755102, 0.8902521520408162, 0.9058877397959184, 0.9127283091836734, 0.8824343581632652, 0.8452997397959183, 0.8540948561224488, 0.8521404071428571, 0.86191265, 0.9107738612244897, 0.9654985153061224, 1.009473606122449, 1.0280408663265306, 1.0348814357142857, 1.0866744173469387, 1.166806902040816, 0.12313037551020409, 0.10456308979591837, 0.05863350918367346, 0.04788403265306122, 0.04983848469387755, 0.10944922346938774, 0.12508482346938776, 0.11628979285714285, 0.06645131428571427, 0.04592958469387755, 0.08990471428571428, 0.11726701734693877, 0.11140367244897958, 0.05863350918367346, 0.050815709183673466, 0.08208691428571428, 0.10065419285714286, 0.1807866530612245, 0.2599418897959183, -0.005863351020408163, -0.36450500408163267, -0.3293248826530612, 0.1504926775510204, 0.23453403469387754, 0.18176388979591837, -0.03127120612244898, -0.12215315102040816, -0.14462933265306122, -0.13094816938775508, -0.01759005306122449, -0.00195445, -0.0009772255102040816, 0.01368115306122449, 0.032248430612244895, 0.010749477551020407, -0.0283395306122449, -0.0244306306122449, -0.012703927551020408, 0.003908901020408162, -0.0009772255102040816, -0.023453404081632653, -0.06938298775510203, -0.06254241224489795, -0.01954450306122449, 0.03420288163265306, 0.025407854081632653, -0.12019870204081631, -0.1671055020408163, -0.1661282775510204, 0.01368115306122449, -0.08110969081632652, -0.07426911428571428, -0.052770157142857134, -0.04886126020408163, -0.03908900612244898, -0.016612828571428567, -0.009772251020408162, 0.008795026530612244, -0.004886125510204081, -0.01368115306122449, 0.0009772255102040816, 0.016612828571428567, 0.02736230612244898, 0.02247617857142857, 0.0009772255102040816, 0.10260864183673468, 0.12899372040816326, 0.14169764795918366, 0.04397513265306122, -0.23551125918367347, -0.5296560693877551, -0.42997910102040815, -0.12313037551020409, -0.1622193806122449, -0.24137462857142855, -0.2560329928571428, -0.23355681020408162, -0.18274111428571427, -0.14267487142857144, -0.09674529081632652, -0.0869730418367347, -0.07817801122448978, -0.08013246632653061, -0.06645131428571427, -0.06449686020408163, -0.06254241224489795, -0.05374738775510204, -0.03420288163265306, -0.005863351020408163, 0.01563560306122449, 0.04983848469387755, 0.04788403265306122, 0.03811178163265306, 0.016612828571428567, 0.0244306306122449, 0.05374738775510204, 0.07426911428571428, 0.07133743571428572, -0.026385078571428567, -0.19153613265306121, 
25, 0.9146922028323379, 1.166806902040816, 1.2068730959183673, 1.1707157989795918, 1.0573576908163265, 1.0993783326530613, 1.2635521989795917, 1.291891701020408, 1.1492167683673469, 1.0808110724489794, 1.0378131091836733, 0.9469311581632651, 0.9176144306122449, 0.8521404071428571, 0.840413619387755, 0.8492086367346937, 0.8648443224489795, 0.8765710132653061, 0.8198919102040816, 0.8189146857142857, 0.8218463581632652, 0.8570265285714285, 0.868753219387755, 0.9185916551020408, 1.0172913999999997, 1.0114280540816327, 1.0055647091836732, 1.0661527091836733, 1.2899372530612243, 1.3368440163265305, 1.1658296775510202, 1.0505170234693877, 1.0749477265306122, 1.201986974489796, 1.1023100051020407, 0.9596351704081632, 0.9694074122448979, 1.0182686244897958, 1.060289363265306, 1.0524715693877549, 1.0212002969387755, 0.9508401520408163, 0.9176144306122449, 0.8814571336734693, 0.8413908428571428, 0.8843888071428571, 0.9058877397959184, 0.9332500183673469, 0.9303183459183673, 0.8521404071428571, 0.8032790979591836, 0.01368115306122449, 0.08892749081632653, 0.3518010642857142, -0.07329189081632653, -0.14462933265306122, -0.13192540510204082, 0.04983848469387755, 0.16417382959183674, 0.10847199897959184, 0.09576806632653061, 0.07329189081632653, 0.06547408469387754, 0.02736230612244898, 0.042997909183673466, 0.06254241224489795, 0.08404136326530612, 0.06938298775510203, 0.0009772255102040816, 0.009772251020408162, 0.0244306306122449, 0.05374738775510204, 0.05863350918367346, 0.04983848469387755, 0.036157332653061224, 0.06058796326530612, 0.08990471428571428, 0.1465837806122449, 0.05570183571428571, -0.1661282775510204, -0.032248430612244895, 0.08990471428571428, 0.33811992551020403, 0.06449686020408163, -0.09576806632653061, 0.03713455714285714, 0.061565187755102044, 0.04202068163265306, -0.021498954081632653, -0.0703602112244898, -0.07133743571428572, 0.014658377551020408, 0.04495235714285714, 0.0635196357142857, 0.04397513265306122, -0.01759005306122449, -0.032248430612244895, -0.0283395306122449, -0.01954450306122449, 0.009772251020408162, -0.042997909183673466, -0.19153613265306121, -0.2599418897959183, -0.36450500408163267, -0.2433290775510204, -0.23355681020408162, -0.15831048367346937, -0.1153125693877551, -0.12997094489795916, -0.13974319897959184, -0.12313037551020409, -0.09674529081632652, -0.09088194489795919, -0.05570183571428571, -0.014658377551020408, -0.005863351020408163, -0.009772251020408162, -0.01563560306122449, -0.021498954081632653, -0.011726702040816326, -0.005863351020408163, 0.036157332653061224, 0.011726702040816326, 0.042997909183673466, 0.02736230612244898, 0.06058796326530612, 0.08990471428571428, 0.07622356326530612, -0.13681152653061224, -0.2667824836734694, -0.24626074999999997, -0.12703927244897958, -0.061565187755102044, -0.21694399897959182, -0.3224843132653061, -0.300985356122449, -0.26287358673469385, -0.18860445918367344, -0.12899372040816326, -0.1182442418367347, -0.10163141734693877, -0.07915524183673468, -0.07329189081632653, -0.0703602112244898, -0.06058796326530612, -0.04495235714285714, -0.040066232653061216, -0.029316754081632652, -0.023453404081632653, -0.03811178163265306, 0.003908901020408162, 
26, 0.9346084490224342, 0.86191265, 0.9430222612244897, 0.991883569387755, 1.0905833142857142, 1.2117592173469387, 1.2313037020408162, 1.3045956163265306, 1.29384615, 1.1374900775510204, 1.053448793877551, 1.0290180908163264, 0.9723390846938774, 0.9361816908163264, 0.9469311581632651, 1.083742744897959, 1.0954694357142856, 1.076902175510204, 1.0280408663265306, 0.9547490489795918, 0.8804799102040817, 0.8609354255102041, 0.8677759948979591, 0.8824343581632652, 0.8961154979591837, 0.9195688795918366, 0.8120741163265306, 0.775916819387755, 0.7534406132653061, 0.7622356316326531, 0.9332500183673469, 1.0739705030612245, 1.076902175510204, 1.1199000418367346, 1.3212084285714285, 1.3260945499999999, 1.2684383193877549, 1.2987322714285712, 1.252802731632653, 1.0729932785714285, 0.8785254612244897, 0.900024394897959, 0.9469311581632651, 1.008496381632653, 1.0436764540816326, 1.0280408663265306, 0.9782024306122449, 0.9019788428571428, 0.8882977040816326, 0.8863432551020408, 0.8931838244897958, -0.10847199897959184, -0.03029398163265306, 0.05374738775510204, 0.05961073877551021, -0.014658377551020408, 0.026385078571428567, 0.14169764795918366, 0.10944922346938774, -0.2394201806122449, -0.13974319897959184, -0.008795026530612244, 0.2218301193877551, 0.1837183387755102, 0.11433534489795917, 0.0, 0.050815709183673466, 0.11628979285714285, 0.10554031428571427, 0.04983848469387755, 0.009772251020408162, 0.04104345714285714, 0.06547408469387754, 0.11628979285714285, 0.10749477551020407, 0.06840576326530612, 0.05961073877551021, 0.08110969081632652, 0.12117592653061224, 0.12801649591836733, 0.08110969081632652, 0.06840576326530612, 0.050815709183673466, 0.08990471428571428, 0.003908901020408162, -0.06254241224489795, 0.23062513775510204, 0.08404136326530612, 0.03811178163265306, -0.09674529081632652, -0.042997909183673466, 0.03713455714285714, 0.04983848469387755, -0.03420288163265306, -0.0918591693877551, -0.052770157142857134, 0.005863351020408163, 0.036157332653061224, 0.02736230612244898, -0.012703927551020408, -0.03811178163265306, 0.050815709183673466, 0.009772251020408162, -0.010749477551020407, 0.010749477551020407, -0.12703927244897958, -0.21205785306122446, -0.24919242244897957, -0.22476179285714287, -0.1182442418367347, -0.19837671428571427, -0.22769346530612242, -0.2394201806122449, -0.26385081020408163, -0.261896337755102, -0.1622193806122449, -0.15537879897959184, -0.1387659744897959, -0.11335812040816325, -0.11238089591836734, -0.08208691428571428, -0.0674285387755102, -0.04788403265306122, -0.02052172857142857, -0.01368115306122449, -0.006840576530612245, -0.042997909183673466, -0.03811178163265306, -0.03908900612244898, -0.01368115306122449, 0.033225657142857135, 0.007817801020408162, 0.01563560306122449, -0.046906809183673466, -0.35668718571428565, -0.18274111428571427, -0.09869974489795917, -0.28046362244897954, -0.2980536826530612, -0.2824180714285714, -0.30391702857142855, -0.2101034051020408, -0.18665001122448976, -0.1358343020408163, -0.1182442418367347, -0.10651755102040815, -0.09283639387755102, -0.08990471428571428, -0.08110969081632652, -0.0918591693877551, -0.0918591693877551, 
27, 0.8832970381062211, 0.8931838244897958, 0.9010016183673469, 0.9107738612244897, 0.9107738612244897, 0.9127283091836734, 0.8492086367346937, 0.7954613040816326, 0.8023018734693877, 0.8394363948979592, 0.9332500183673469, 1.0163141755102039, 1.0378131091836733, 1.1140366959183674, 1.3368440163265305, 1.3974320163265306, 1.3622519438775509, 1.2010097499999999, 1.0710388295918367, 1.062243812244898, 1.0788566234693877, 1.0651754846938775, 1.0456309030612243, 0.9801568785714285, 0.9195688795918366, 0.9195688795918366, 0.8599582010204082, 0.8511631826530612, 0.8423680673469387, 0.8804799102040817, 0.8961154979591837, 0.9127283091836734, 0.885366030612245, 0.853117631632653, 0.816960237755102, 0.832595825510204, 0.8726621163265306, 0.9459539336734692, 0.9674529642857141, 1.008496381632653, 1.0221775214285713, 1.0387903326530612, 1.2088275438775509, 1.2684383193877549, 1.1677841265306121, 1.1199000418367346, 1.1756019204081631, 1.2215314591836732, 1.1345584051020408, 1.060289363265306, 1.025109193877551, -0.03811178163265306, -0.0869730418367347, -0.04983848469387755, -0.03420288163265306, -0.021498954081632653, -0.0283395306122449, -0.052770157142857134, -0.12410759897959182, -0.13290262959183674, -0.1348570775510204, 0.0029316755102040816, -0.009772251020408162, -0.03811178163265306, 0.14951545408163264, 0.1807866530612245, 0.07915524183673468, -0.04886126020408163, 0.009772251020408162, 0.04983848469387755, 0.10651755102040815, 0.14951545408163264, 0.17296885918367347, 0.1504926775510204, 0.12801649591836733, 0.12801649591836733, 0.05765628469387755, 0.032248430612244895, 0.04202068163265306, 0.11433534489795917, 0.12606204795918366, 0.09674529081632652, 0.0703602112244898, 0.08892749081632653, 0.0752463387755102, 0.07720078775510204, 0.05765628469387755, 0.029316754081632652, 0.03127120612244898, 0.08795026632653061, 0.11140367244897958, 0.1348570775510204, 0.0996769693877551, -0.13387985408163267, -0.10847199897959184, 0.11726701734693877, 0.1671055020408163, 0.17687775612244896, 0.05863350918367346, -0.029316754081632652, -0.03811178163265306, -0.0918591693877551, -0.08404136326530612, -0.046906809183673466, -0.03518010612244898, -0.025407854081632653, -0.03713455714285714, -0.036157332653061224, 0.0283395306122449, 0.03811178163265306, 0.009772251020408162, 0.012703927551020408, 0.012703927551020408, -0.24430630204081633, -0.3371426765306122, -0.28144084693877547, -0.2736230530612245, -0.30782592551020405, -0.2316023622448979, -0.19544504081632652, -0.1544015744897959, -0.15342435102040816, -0.14072042346938773, -0.15733325918367347, -0.11433534489795917, -0.11433534489795917, -0.046906809183673466, -0.0674285387755102, -0.07329189081632653, -0.06254241224489795, -0.05472461224489796, -0.04104345714285714, -0.0283395306122449, -0.040066232653061216, -0.009772251020408162, -0.005863351020408163, -0.005863351020408163, 0.050815709183673466, 0.050815709183673466, 0.11042644795918366, 0.13192540510204082, 0.10749477551020407, -0.1710144112244898, -0.3117348224489796, -0.2521240959183673, -0.13290262959183674, -0.10456308979591837, -0.1485382295918367, -0.25896466530612244, -0.292190337755102, -0.22573901632653057, 
28, 0.8472440743017667, 1.0280408663265306, 1.0466081265306122, 1.0632210357142855, 1.0339042122448978, 0.9928607938775509, 0.9361816908163264, 0.8667987704081632, 0.8707076673469386, 0.900024394897959, 0.9254322244897958, 0.9293411214285714, 0.9166372061224488, 0.8863432551020408, 0.8638670979591836, 0.8843888071428571, 0.9176144306122449, 0.9254322244897958, 0.9273866734693877, 0.9625668428571429, 0.9899291214285714, 1.0554032418367347, 1.0729932785714285, 1.0729932785714285, 1.124786163265306, 1.23325815, 1.2361898224489796, 1.0886288663265307, 1.007519157142857, 0.8961154979591837, 0.9654985153061224, 1.1922147326530612, 1.1501939928571427, 1.1062189020408162, 1.0573576908163265, 1.025109193877551, 0.9400905877551019, 0.9127283091836734, 0.8648443224489795, 0.8570265285714285, 0.8707076673469386, 0.9107738612244897, 0.9107738612244897, 0.9010016183673469, 0.8882977040816326, 0.8902521520408162, 0.8912293765306121, 0.8863432551020408, 0.8599582010204082, 0.8198919102040816, 0.8550720795918366, -0.021498954081632653, -0.004886125510204081, -0.02052172857142857, -0.05179293265306122, -0.05667906020408162, -0.02247617857142857, 0.006840576530612245, -0.011726702040816326, -0.036157332653061224, -0.04886126020408163, -0.02736230612244898, -0.009772251020408162, -0.005863351020408163, -0.0283395306122449, -0.08013246632653061, -0.10456308979591837, -0.10749477551020407, -0.07915524183673468, -0.03811178163265306, -0.009772251020408162, -0.046906809183673466, -0.0869730418367347, -0.11140367244897958, -0.025407854081632653, 0.11042644795918366, 0.15831048367346937, -0.01368115306122449, -0.0703602112244898, -0.04886126020408163, 0.09576806632653061, 0.2941447857142857, 0.20033116224489794, 0.14267487142857144, 0.052770157142857134, -0.010749477551020407, -0.03518010612244898, -0.03127120612244898, 0.04886126020408163, 0.08795026632653061, 0.1035858663265306, 0.07426911428571428, 0.05374738775510204, 0.03420288163265306, 0.036157332653061224, 0.0830641387755102, 0.10163141734693877, 0.06840576326530612, 0.05863350918367346, 0.06645131428571427, 0.08599581734693877, -0.19446781734693877, -0.1592877081632653, -0.11628979285714285, -0.10651755102040815, -0.09381361734693877, -0.08013246632653061, -0.0703602112244898, -0.05570183571428571, -0.04495235714285714, -0.04592958469387755, -0.03518010612244898, -0.025407854081632653, -0.006840576530612245, 0.014658377551020408, 0.03811178163265306, 0.05179293265306122, 0.029316754081632652, 0.02052172857142857, 0.032248430612244895, 0.06938298775510203, 0.10554031428571427, 0.11140367244897958, 0.0752463387755102, -0.05863350918367346, -0.18567278673469387, -0.3254159857142857, -0.2716686040816326, -0.2912131132653061, -0.24235185306122448, -0.18665001122448976, -0.1710144112244898, -0.1807866530612245, -0.15244712653061224, -0.13094816938775508, -0.08013246632653061, -0.10554031428571427, -0.10554031428571427, -0.08599581734693877, -0.0752463387755102, -0.05179293265306122, -0.04202068163265306, -0.04202068163265306, -0.04495235714285714, -0.052770157142857134, -0.036157332653061224, -0.0009772255102040816, 0.016612828571428567, 0.032248430612244895, 0.07915524183673468, 0.11726701734693877, 
29, 0.876443435697271, 1.0661527091836733, 1.062243812244898, 1.3036183918367346, 1.3925458948979592, 1.107196126530612, 1.0202230724489796, 1.084719969387755, 1.1492167683673469, 1.1492167683673469, 1.1042644540816327, 1.09156053877551, 1.1052416785714285, 1.1238089387755101, 1.076902175510204, 1.0260864183673468, 0.8795026857142856, 0.8550720795918366, 0.8765710132653061, 0.8785254612244897, 0.885366030612245, 0.8804799102040817, 0.8658215469387753, 0.8658215469387753, 0.8433452918367346, 0.8746165642857142, 0.8980699459183673, 0.9967696908163265, 1.0280408663265306, 1.0368358846938774, 1.03097253877551, 1.0456309030612243, 1.166806902040816, 1.1453078714285714, 1.1286950602040815, 1.075924951020408, 0.9567034969387754, 1.0358586602040816, 1.2215314591836732, 1.18439693877551, 1.1550802112244896, 1.125763386734694, 1.0749477265306122, 0.9713618612244899, 0.9039332918367347, 0.8814571336734693, 0.8609354255102041, 0.853117631632653, 0.8658215469387753, 0.8589809765306121, 0.8208691346938775, 0.00195445, 0.0, 0.032248430612244895, -0.026385078571428567, 0.1035858663265306, 0.21108062857142854, 0.13778875102040813, 0.02052172857142857, 0.02052172857142857, -0.06547408469387754, -0.040066232653061216, 0.05667906020408162, 0.07817801122448978, 0.052770157142857134, 0.042997909183673466, 0.03127120612244898, 0.014658377551020408, 0.00195445, 0.006840576530612245, 0.025407854081632653, 0.04886126020408163, 0.07915524183673468, 0.05765628469387755, -0.0029316755102040816, -0.07817801122448978, -0.07231466632653061, 0.03029398163265306, 0.09674529081632652, 0.09479084183673468, 0.032248430612244895, -0.05667906020408162, -0.02247617857142857, 0.1182442418367347, 0.1035858663265306, 0.11628979285714285, 0.07133743571428572, -0.04397513265306122, 0.007817801020408162, 0.1035858663265306, 0.12801649591836733, 0.12703927244897958, 0.1182442418367347, 0.08795026632653061, 0.046906809183673466, 0.04983848469387755, 0.07915524183673468, 0.11726701734693877, 0.10847199897959184, 0.0635196357142857, 0.04202068163265306, 0.0283395306122449, 0.029316754081632652, -0.3322565551020408, -0.44854636122448976, -0.22867068979591834, -0.07426911428571428, -0.21792122346938775, -0.300985356122449, -0.300985356122449, -0.26287358673469385, -0.17296885918367347, -0.11433534489795917, -0.09283639387755102, -0.10163141734693877, -0.10749477551020407, -0.10554031428571427, -0.0830641387755102, -0.06840576326530612, -0.06840576326530612, -0.05374738775510204, -0.05179293265306122, -0.010749477551020407, 0.0, -0.006840576530612245, 0.005863351020408163, 0.025407854081632653, 0.0244306306122449, 0.03518010612244898, 0.04495235714285714, 0.03713455714285714, -0.006840576530612245, -0.18665001122448976, -0.2609191132653061, -0.2609191132653061, -0.33127933163265305, -0.28339529489795917, -0.17687775612244896, -0.11042644795918366, -0.12703927244897958, -0.12117592653061224, -0.12997094489795916, -0.10749477551020407, -0.06547408469387754, -0.07622356326530612, -0.07133743571428572, -0.07426911428571428, -0.06840576326530612, -0.04788403265306122, -0.05667906020408162, -0.05863350918367346, 
30, 0.9072544397609761, 0.816960237755102, 0.8423680673469387, 0.840413619387755, 0.8560493040816326, 0.8804799102040817, 0.9557262734693877, 0.9830885520408164, 1.0163141755102039, 1.132603957142857, 1.1980780775510202, 1.2870055806122447, 1.2469392897959184, 1.124786163265306, 1.1462850959183672, 1.1355356295918366, 1.0651754846938775, 0.9889518969387755, 0.9948152428571428, 1.0710388295918367, 1.0817882969387753, 1.0827655204081632, 1.0378131091836733, 0.9615896183673468, 0.8707076673469386, 0.8550720795918366, 0.8726621163265306, 0.8970927214285714, 0.9039332918367347, 0.9195688795918366, 0.8628898734693877, 0.8482314132653062, 0.8101196673469387, 0.7974157530612244, 0.832595825510204, 0.9752707581632653, 0.976247981632653, 1.069084381632653, 1.1159911448979591, 1.169738574489796, 1.1863513867346938, 1.2107819928571428, 1.1648524540816327, 1.0984011081632652, 0.9909063459183672, 1.053448793877551, 1.1853741622448979, 1.2361898224489796, 1.1961236295918365, 1.1453078714285714, 1.0661527091836733, 0.0635196357142857, 0.0869730418367347, 0.11140367244897958, 0.1182442418367347, 0.11922147857142856, 0.0996769693877551, 0.07231466632653061, 0.061565187755102044, 0.11238089591836734, 0.0869730418367347, -0.04788403265306122, 0.014658377551020408, 0.11335812040816325, 0.12508482346938776, 0.033225657142857135, -0.09283639387755102, -0.06449686020408163, 0.003908901020408162, -0.004886125510204081, -0.016612828571428567, -0.029316754081632652, -0.05179293265306122, -0.02736230612244898, 0.04886126020408163, 0.05570183571428571, 0.03713455714285714, -0.006840576530612245, -0.02052172857142857, -0.01759005306122449, 0.046906809183673466, 0.03029398163265306, 0.012703927551020408, -0.004886125510204081, -0.09869974489795917, -0.012703927551020408, 0.0674285387755102, 0.10065419285714286, 0.0244306306122449, -0.09283639387755102, -0.09869974489795917, -0.026385078571428567, 0.009772251020408162, 0.0830641387755102, 0.13387985408163267, 0.011726702040816326, -0.04495235714285714, -0.03029398163265306, 0.07915524183673468, 0.1387659744897959, 0.1475610051020408, -0.025407854081632653, -0.036157332653061224, -0.005863351020408163, 0.007817801020408162, 0.02052172857142857, 0.026385078571428567, 0.05374738775510204, 0.0752463387755102, -0.023453404081632653, -0.12313037551020409, -0.22280734387755102, -0.18176388979591837, -0.1778549806122449, -0.22280734387755102, -0.24039740510204077, -0.32639321020408163, -0.34496049489795916, -0.25310131938775504, -0.1622193806122449, -0.14169764795918366, -0.12801649591836733, -0.12117592653061224, -0.11922147857142856, -0.10163141734693877, -0.11238089591836734, -0.08208691428571428, -0.06645131428571427, -0.05179293265306122, -0.025407854081632653, -0.01563560306122449, -0.02247617857142857, -0.042997909183673466, -0.03127120612244898, 0.03127120612244898, -0.03029398163265306, -0.05570183571428571, 0.01954450306122449, 0.06058796326530612, 0.02247617857142857, -0.05863350918367346, -0.1485382295918367, -0.20424005918367344, -0.2550557683673469, -0.269714156122449, -0.28144084693877547, -0.2022856112244898, -0.17492330816326532, -0.13974319897959184, -0.1182442418367347, -0.0996769693877551, 
31, 0.931588212973318, 0.9537718244897959, 0.9146827581632652, 0.8511631826530612, 0.8218463581632652, 0.792529631632653, 0.823800807142857, 0.840413619387755, 0.8589809765306121, 0.8179374612244898, 0.7710306499999999, 0.8218463581632652, 0.9312955704081631, 0.9938380183673468, 1.0466081265306122, 1.0299953153061223, 1.0055647091836732, 1.101332781632653, 1.2010097499999999, 1.3387984642857143, 1.4570427918367346, 1.1462850959183672, 1.0055647091836732, 1.1384673020408163, 1.1892830591836734, 1.0700616061224488, 0.9869974489795917, 1.0231547448979592, 1.0172913999999997, 0.9977469153061225, 0.9567034969387754, 0.9156599826530613, 0.8433452918367346, 0.8306413765306122, 0.8384591704081633, 0.8638670979591836, 0.8941610489795917, 0.8755937887755102, 0.840413619387755, 0.808165219387755, 0.7710306499999999, 0.793506856122449, 0.9752707581632653, 0.9723390846938774, 0.9987241397959183, 1.107196126530612, 1.217622562244898, 1.276256113265306, 1.241075943877551, 1.2117592173469387, 1.1032872295918366, 0.1153125693877551, 0.09088194489795919, 0.029316754081632652, 0.01368115306122449, 0.05472461224489796, 0.10847199897959184, 0.09772252040816326, 0.05961073877551021, 0.029316754081632652, 0.03811178163265306, 0.0752463387755102, 0.07133743571428572, 0.06840576326530612, 0.04592958469387755, 0.033225657142857135, 0.14267487142857144, 0.18860445918367344, 0.17003718673469387, -0.00195445, -0.12997094489795916, 0.01759005306122449, 0.2658052591836735, 0.2970764591836734, 0.11238089591836734, 0.01759005306122449, 0.006840576530612245, -0.050815709183673466, -0.0635196357142857, -0.08501859387755101, -0.08013246632653061, -0.061565187755102044, 0.009772251020408162, 0.033225657142857135, 0.03518010612244898, 0.01856727857142857, 0.007817801020408162, 0.01368115306122449, 0.025407854081632653, 0.0283395306122449, 0.008795026530612244, -0.0703602112244898, -0.08501859387755101, 0.04886126020408163, 0.08013246632653061, 0.011726702040816326, -0.04202068163265306, -0.006840576530612245, 0.021498954081632653, -0.0244306306122449, -0.05179293265306122, -0.06840576326530612, -0.07329189081632653, -0.05765628469387755, -0.05961073877551021, -0.04788403265306122, -0.026385078571428567, -0.01856727857142857, -0.014658377551020408, -0.01563560306122449, -0.03811178163265306, 0.04886126020408163, 0.07720078775510204, 0.032248430612244895, -0.01368115306122449, 0.06058796326530612, 0.12703927244897958, 0.09576806632653061, 0.007817801020408162, -0.1544015744897959, -0.4221612581632652, -0.2364884836734694, -0.1671055020408163, -0.15635602346938776, -0.269714156122449, -0.323461537755102, -0.27655472551020405, -0.14951545408163264, -0.13094816938775508, -0.11433534489795917, -0.08892749081632653, -0.08208691428571428, -0.03518010612244898, -0.023453404081632653, -0.010749477551020407, -0.011726702040816326, -0.01563560306122449, -0.01954450306122449, -0.021498954081632653, -0.033225657142857135, -0.032248430612244895, -0.0009772255102040816, -0.021498954081632653, -0.04104345714285714, -0.003908901020408162, 0.021498954081632653, -0.02052172857142857, -0.1465837806122449, -0.285349743877551, -0.2521240959183673, -0.2482151989795918, 
32, 0.9198010568640171, 1.1032872295918366, 1.0172913999999997, 0.9782024306122449, 1.1423761989795918, 1.1961236295918365, 1.1990553020408161, 1.1355356295918366, 1.0456309030612243, 0.9703846367346938, 0.9400905877551019, 0.8931838244897958, 0.8492086367346937, 0.8882977040816326, 0.8716848918367347, 0.8335730489795917, 0.8286869285714286, 0.8374819459183672, 0.8746165642857142, 0.8843888071428571, 0.8785254612244897, 0.8804799102040817, 0.8863432551020408, 0.8648443224489795, 0.784711837755102, 0.8042563224489795, 0.8882977040816326, 1.0710388295918367, 1.3055728408163265, 1.8322971887755102, 1.1140366959183674, 0.737805025510204, 1.1150139204081633, 1.4677922581632652, 1.2381442714285713, 0.8140285642857142, 0.7827573897959182, 0.8658215469387753, 1.0270636418367347, 1.108173351020408, 1.0270636418367347, 0.9547490489795918, 0.9264094489795917, 0.868753219387755, 0.8638670979591836, 0.8902521520408162, 0.8882977040816326, 0.8970927214285714, 0.8892749275510203, 0.8902521520408162, 0.9156599826530613, -0.05179293265306122, -0.04886126020408163, -0.03811178163265306, 0.021498954081632653, 0.06840576326530612, 0.08404136326530612, 0.10065419285714286, 0.14267487142857144, 0.07915524183673468, -0.02736230612244898, -0.02052172857142857, 0.05667906020408162, 0.11042644795918366, 0.08208691428571428, 0.04983848469387755, 0.04397513265306122, 0.03811178163265306, 0.03420288163265306, 0.07622356326530612, 0.09479084183673468, 0.09576806632653061, 0.08404136326530612, 0.0830641387755102, 0.16515105306122446, 0.2218301193877551, 0.19544504081632652, 0.0752463387755102, 0.02247617857142857, -0.30880314999999997, -0.2824180714285714, 0.3185754163265306, 0.7065338020408163, 0.5286788448979591, 0.003908901020408162, -0.33127933163265305, -0.3283476581632653, -0.2579874408163265, -0.16808272653061224, -0.13094816938775508, -0.13778875102040813, -0.03029398163265306, 0.01368115306122449, 0.06840576326530612, 0.06449686020408163, -0.012703927551020408, -0.042997909183673466, -0.03127120612244898, 0.0009772255102040816, 0.021498954081632653, 0.009772251020408162, -0.2482151989795918, -0.27753194999999997, -0.3254159857142857, -0.2130351020408163, -0.19153613265306121, -0.21792122346938775, -0.18567278673469387, -0.1661282775510204, -0.036157332653061224, -0.03518010612244898, -0.05472461224489796, -0.042997909183673466, -0.06058796326530612, -0.029316754081632652, -0.02052172857142857, -0.025407854081632653, -0.03420288163265306, -0.0029316755102040816, 0.03811178163265306, 0.0674285387755102, 0.08404136326530612, 0.12410759897959182, 0.12899372040816326, 0.0830641387755102, 0.18176388979591837, 0.17296885918367347, 0.14072042346938773, -0.08013246632653061, -0.7426911469387755, -0.292190337755102, -0.026385078571428567, 0.09869974489795917, -0.08110969081632652, -0.2912131132653061, -0.4641819489795918, -0.4290018765306122, -0.2579874408163265, -0.1719916357142857, -0.09381361734693877, -0.04983848469387755, -0.06058796326530612, -0.05472461224489796, -0.05961073877551021, -0.06058796326530612, -0.03420288163265306, -0.02736230612244898, -0.01856727857142857, -0.014658377551020408, -0.0029316755102040816, 0.01759005306122449, 
33, 0.8967481849059787, 0.8736393397959183, 0.8189146857142857, 0.784711837755102, 0.8892749275510203, 1.0720160540816326, 1.0944922112244897, 1.101332781632653, 1.1374900775510204, 1.2801650102040816, 1.3143678591836734, 1.241075943877551, 1.09156053877551, 1.0065419336734693, 1.0954694357142856, 1.1560574357142857, 1.0661527091836733, 1.0466081265306122, 0.9879746724489796, 0.9234777765306121, 0.8599582010204082, 0.840413619387755, 0.8335730489795917, 0.8443225163265304, 0.8560493040816326, 0.8902521520408162, 0.8873204795918367, 0.8492086367346937, 0.7808029408163265, 0.7680989775510203, 0.7974157530612244, 1.0632210357142855, 1.0593121387755102, 1.0632210357142855, 1.1541029867346937, 1.2830966836734692, 1.2195770112244897, 1.1355356295918366, 1.148239544897959, 1.1238089387755101, 1.125763386734694, 1.1003555571428572, 1.084719969387755, 1.069084381632653, 1.0710388295918367, 1.0798338479591836, 1.0661527091836733, 0.9703846367346938, 0.9342272428571428, 0.8609354255102041, 0.8247780316326531, -0.04202068163265306, -0.0996769693877551, -0.1592877081632653, -0.10847199897959184, 0.003908901020408162, 0.004886125510204081, -0.09576806632653061, -0.12019870204081631, 0.07622356326530612, -0.010749477551020407, -0.09381361734693877, -0.10651755102040815, -0.052770157142857134, 0.04397513265306122, 0.13681152653061224, 0.14951545408163264, 0.13290262959183674, 0.08892749081632653, 0.04886126020408163, 0.009772251020408162, 0.05472461224489796, 0.07231466632653061, 0.08990471428571428, 0.1035858663265306, 0.0918591693877551, 0.04397513265306122, 0.04104345714285714, 0.033225657142857135, 0.03811178163265306, 0.10651755102040815, 0.11433534489795917, 0.07133743571428572, 0.029316754081632652, 0.08795026632653061, -0.08599581734693877, -0.06840576326530612, 0.1778549806122449, 0.18665001122448976, 0.14365209591836733, -0.014658377551020408, -0.05570183571428571, 0.01368115306122449, 0.025407854081632653, -0.00195445, -0.06840576326530612, -0.09576806632653061, -0.05765628469387755, -0.03029398163265306, 0.01759005306122449, 0.05374738775510204, -0.014658377551020408, -0.04104345714285714, -0.03127120612244898, 0.04397513265306122, 0.03127120612244898, 0.029316754081632652, -0.01368115306122449, -0.22280734387755102, -0.40359399795918366, -0.24430630204081633, -0.2316023622448979, -0.2755775010204081, -0.22867068979591834, -0.13290262959183674, -0.12215315102040816, -0.14462933265306122, -0.1514699020408163, -0.1504926775510204, -0.11922147857142856, -0.04886126020408163, -0.05374738775510204, -0.04788403265306122, -0.032248430612244895, -0.01563560306122449, 0.016612828571428567, 0.0, -0.025407854081632653, -0.03127120612244898, -0.02247617857142857, 0.1504926775510204, 0.04788403265306122, 0.012703927551020408, 0.05667906020408162, 0.02736230612244898, -0.27753194999999997, -0.16319660510204081, -0.1905589081632653, -0.2198756714285714, -0.1837183387755102, -0.3127120469387755, -0.3293248826530612, -0.269714156122449, -0.2511468714285714, -0.14169764795918366, -0.09381361734693877, -0.0752463387755102, -0.06547408469387754, -0.05961073877551021, -0.046906809183673466, -0.012703927551020408, 
34, 0.9485603273997242, 0.8247780316326531, 0.8335730489795917, 0.86191265, 0.8775482367346938, 0.8736393397959183, 0.8384591704081633, 0.7798257163265305, 0.8335730489795917, 0.9146827581632652, 0.9703846367346938, 1.1130594724489795, 1.1961236295918365, 1.2752788897959182, 1.2508481867346937, 1.1746246959183673, 1.1746246959183673, 1.1501939928571427, 1.0817882969387753, 0.9097966367346938, 0.8951382734693878, 0.9860202244897959, 1.1384673020408163, 1.148239544897959, 1.031949763265306, 0.976247981632653, 0.9234777765306121, 0.8892749275510203, 0.8413908428571428, 0.8130513408163265, 0.8296641520408163, 0.8540948561224488, 0.9039332918367347, 0.8286869285714286, 0.7729850979591837, 0.7632128561224489, 0.8560493040816326, 0.9576807214285713, 1.0026330367346938, 1.061266587755102, 1.1052416785714285, 1.1423761989795918, 1.2391214959183672, 1.2557344051020407, 1.1726702479591835, 1.2293492530612244, 1.2449848408163264, 1.1941691806122448, 0.9879746724489796, 0.9791796551020407, 1.0358586602040816, 0.05374738775510204, 0.05570183571428571, 0.008795026530612244, 0.01368115306122449, 0.025407854081632653, 0.01856727857142857, -0.010749477551020407, -0.04788403265306122, 0.0009772255102040816, 0.0029316755102040816, -0.00195445, 0.03127120612244898, 0.03518010612244898, 0.12899372040816326, -0.01563560306122449, -0.01563560306122449, -0.20814895612244896, 0.06645131428571427, 0.19935393775510202, 0.1592877081632653, 0.01954450306122449, 0.006840576530612245, 0.08501859387755101, 0.13387985408163267, 0.13778875102040813, 0.06547408469387754, -0.00195445, -0.006840576530612245, 0.08013246632653061, 0.14462933265306122, 0.1504926775510204, 0.11140367244897958, 0.04886126020408163, 0.052770157142857134, 0.0996769693877551, 0.11726701734693877, 0.03127120612244898, 0.003908901020408162, 0.1035858663265306, 0.14267487142857144, 0.13192540510204082, 0.01563560306122449, -0.052770157142857134, 0.08013246632653061, 0.1182442418367347, 0.0830641387755102, -0.08110969081632652, -0.09381361734693877, -0.008795026530612244, 0.06645131428571427, -0.012703927551020408, 0.008795026530612244, 0.036157332653061224, 0.03420288163265306, 0.03029398163265306, 0.029316754081632652, 0.01563560306122449, 0.00195445, -0.016612828571428567, -0.026385078571428567, -0.008795026530612244, 0.02247617857142857, -0.07622356326530612, -0.23453403469387754, -0.09674529081632652, -0.09674529081632652, -0.1739460836734694, -0.2316023622448979, -0.2560329928571428, -0.24919242244897957, -0.2218301193877551, -0.15733325918367347, -0.14462933265306122, -0.1348570775510204, -0.1182442418367347, -0.08404136326530612, -0.05961073877551021, -0.050815709183673466, -0.03420288163265306, -0.007817801020408162, -0.0009772255102040816, 0.005863351020408163, 0.014658377551020408, -0.007817801020408162, -0.025407854081632653, -0.04104345714285714, -0.0703602112244898, 0.01856727857142857, 0.07426911428571428, 0.003908901020408162, -0.11335812040816325, -0.18958168367346936, -0.06449686020408163, -0.03420288163265306, -0.20814895612244896, -0.2716686040816326, -0.3420288224489796, -0.34105159795918366, -0.3019625795918367, -0.1739460836734694, 
35, 0.9229715469603672, 1.092537763265306, 1.069084381632653, 1.047585351020408, 0.9234777765306121, 0.8130513408163265, 0.7964385285714285, 0.8023018734693877, 0.8159830132653061, 0.8580037530612245, 0.8716848918367347, 0.8726621163265306, 0.8677759948979591, 0.7993702010204081, 0.8472541887755102, 0.9547490489795918, 0.9821113275510203, 1.03097253877551, 1.0436764540816326, 1.1120822479591836, 1.2508481867346937, 1.269415543877551, 1.279187786734694, 1.2010097499999999, 1.0739705030612245, 0.9791796551020407, 0.9567034969387754, 0.9537718244897959, 1.1433534234693878, 1.169738574489796, 1.0778794, 1.0436764540816326, 1.032926987755102, 0.9625668428571429, 0.9215233275510204, 0.8873204795918367, 0.8365047224489796, 0.8492086367346937, 0.8824343581632652, 0.8912293765306121, 0.8345502734693876, 0.783734613265306, 0.8120741163265306, 0.9010016183673469, 0.9039332918367347, 0.9185916551020408, 0.9811341030612244, 1.0192458479591835, 1.0407447816326532, 1.1521485387755102, 1.3348895673469385, -0.04886126020408163, -0.05961073877551021, -0.06058796326530612, -0.0283395306122449, 0.0283395306122449, 0.036157332653061224, 0.02052172857142857, 0.007817801020408162, -0.0283395306122449, 0.023453404081632653, 0.04495235714285714, 0.04886126020408163, -0.0283395306122449, -0.06840576326530612, -0.05765628469387755, -0.0244306306122449, 0.005863351020408163, 0.033225657142857135, -0.004886125510204081, -0.026385078571428567, 0.009772251020408162, -0.03811178163265306, -0.0830641387755102, -0.021498954081632653, 0.0703602112244898, 0.025407854081632653, 0.00195445, 0.007817801020408162, 0.03713455714285714, 0.13681152653061224, 0.17296885918367347, 0.1622193806122449, 0.12410759897959182, 0.06449686020408163, 0.004886125510204081, 0.033225657142857135, 0.0635196357142857, 0.10065419285714286, 0.06840576326530612, 0.0283395306122449, 0.04397513265306122, 0.05863350918367346, 0.10456308979591837, 0.1778549806122449, 0.11922147857142856, 0.10651755102040815, 0.10065419285714286, 0.1358343020408163, 0.17296885918367347, 0.032248430612244895, -0.06449686020408163, -0.06449686020408163, -0.06449686020408163, -0.06645131428571427, -0.052770157142857134, -0.04983848469387755, -0.05374738775510204, -0.04886126020408163, -0.032248430612244895, -0.004886125510204081, 0.0029316755102040816, 0.0244306306122449, -0.01954450306122449, 0.014658377551020408, -0.03811178163265306, -0.061565187755102044, -0.0703602112244898, -0.0029316755102040816, 0.05179293265306122, -0.007817801020408162, -0.05765628469387755, -0.13778875102040813, -0.20521728367346936, -0.2570102163265306, -0.2824180714285714, -0.33616545204081627, -0.34105159795918366, -0.18176388979591837, -0.16417382959183674, -0.11726701734693877, -0.06058796326530612, -0.042997909183673466, -0.04397513265306122, -0.02736230612244898, -0.04592958469387755, -0.05374738775510204, -0.05667906020408162, -0.04592958469387755, -0.023453404081632653, -0.0009772255102040816, -0.011726702040816326, 0.006840576530612245, -0.04788403265306122, -0.1544015744897959, -0.09381361734693877, 0.08990471428571428, 0.13094816938775508, 0.12117592653061224, -0.08501859387755101, -0.3117348224489796, 
36, 0.9439406536233624, 1.3348895673469385, 1.3749558581632653, 1.253779956122449, 1.2185997867346938, 1.1736474714285714, 1.1384673020408163, 0.9176144306122449, 0.8609354255102041, 0.9469311581632651, 1.1023100051020407, 1.1003555571428572, 1.0368358846938774, 0.9244549999999999, 0.9029560673469387, 0.8570265285714285, 0.8658215469387753, 0.8922066010204082, 0.8863432551020408, 0.869730443877551, 0.8677759948979591, 0.868753219387755, 0.853117631632653, 0.8355274979591836, 0.8023018734693877, 0.8110968918367346, 0.9889518969387755, 1.048562575510204, 1.041722006122449, 1.0348814357142857, 1.0573576908163265, 1.1677841265306121, 1.1980780775510202, 1.1785335928571428, 1.0192458479591835, 1.068107157142857, 1.2342353744897958, 1.284073907142857, 1.1589891081632653, 1.1199000418367346, 1.060289363265306, 0.9654985153061224, 0.8707076673469386, 0.8707076673469386, 0.8267324795918367, 0.8433452918367346, 0.8599582010204082, 0.8824343581632652, 0.8795026857142856, 0.8062107704081631, 0.823800807142857, 0.032248430612244895, -0.0830641387755102, 0.20130838673469387, 0.22280734387755102, 0.08795026632653061, -0.03811178163265306, -0.19935393775510202, -0.11922147857142856, -0.1358343020408163, -0.23844295612244898, -0.22378456836734695, -0.1661282775510204, -0.03420288163265306, 0.007817801020408162, 0.03420288163265306, -0.042997909183673466, -0.10847199897959184, -0.10260864183673468, -0.06449686020408163, -0.05570183571428571, -0.03811178163265306, -0.06840576326530612, -0.12117592653061224, -0.18958168367346936, -0.19739948979591834, -0.1387659744897959, 0.011726702040816326, 0.01563560306122449, -0.13974319897959184, -0.18176388979591837, -0.14560655714285714, 0.029316754081632652, 0.1544015744897959, 0.0674285387755102, 0.01954450306122449, -0.009772251020408162, 0.05374738775510204, 0.14267487142857144, 0.15244712653061224, 0.12019870204081631, 0.033225657142857135, 0.04495235714285714, 0.04495235714285714, 0.05961073877551021, 0.08795026632653061, 0.08795026632653061, 0.04592958469387755, 0.025407854081632653, 0.04495235714285714, 0.08013246632653061, -0.3117348224489796, -0.13387985408163267, 0.014658377551020408, -0.09381361734693877, -0.261896337755102, -0.30391702857142855, -0.3332337795918367, -0.2579874408163265, -0.2101034051020408, -0.12508482346938776, -0.13387985408163267, -0.13681152653061224, -0.10651755102040815, -0.10163141734693877, -0.09381361734693877, -0.08013246632653061, -0.05863350918367346, -0.0674285387755102, -0.05374738775510204, -0.03713455714285714, -0.0283395306122449, -0.01368115306122449, -0.03029398163265306, -0.05179293265306122, -0.01563560306122449, -0.00195445, -0.01856727857142857, 0.04202068163265306, -0.03713455714285714, -0.10847199897959184, -0.15733325918367347, -0.2316023622448979, -0.3459377193877551, -0.3332337795918367, -0.3068487010204082, -0.20033116224489794, -0.12313037551020409, -0.11726701734693877, -0.1153125693877551, -0.06449686020408163, -0.04886126020408163, -0.05374738775510204, -0.05374738775510204, -0.08795026632653061, -0.029316754081632652, -0.01954450306122449, -0.008795026530612244, -0.00195445, -0.012703927551020408, 0.016612828571428567, 
