datetime,accX[m/s^2],accY[m/s^2],accZ[m/s^2],gyroX[rad/s],gyroY[rad/s],gyroZ[rad/s],angleX[rad],angleY[rad],angleZ[rad],step
2019/09/12 18:08:16.182,  -0.19569999,  -0.80500001,   0.55219996,   0.00000000,   0.00000000,   0.00000000,  -0.00000000,  -0.00000000,  -0.00000000,    1
2019/09/12 18:08:16.193,  -0.19569999,  -0.80500001,   0.55219996,   0.00000000,   0.00000000,   0.00000000,  -0.00000000,  -0.00000000,  -0.00000000,    1
2019/09/12 18:08:16.274,   0.12920000,  -0.26319999,   1.02109993,   0.00000000,   0.00000000,   0.00000000,  -0.00000000,  -0.00000000,  -0.00000000,    1
2019/09/12 18:08:16.283,  -0.51779997,  -0.22160000,   0.65840000,   0.00000000,   0.00000000,   0.00000000,  -0.00000000,  -0.00000000,  -0.00000000,    1
2019/09/12 18:08:16.374,  -0.62049997,   0.08730000,   1.14919996,   0.03054326,  -0.01954769,  -0.21135937,  -0.01118654,  -0.16346377,  -1.85920703,    1
2019/09/12 18:08:16.388,   0.12310000,  -0.12860000,   0.94349998,   0.03054326,  -0.01954769,  -0.21135937,  -0.01121717,  -0.16362974,  -1.85575938,    1
2019/09/12 18:08:16.422,  -0.09030000,   0.02000000,   0.01190000,   0.03054326,  -0.01954769,  -0.21135937,  -0.01408284,  -0.16339833,  -1.85337853,    1
2019/09/12 18:08:16.432,  -0.09030000,   0.02000000,   0.01190000,   0.03054326,  -0.01954769,  -0.21135937,  -0.01408284,  -0.16339833,  -1.84676814,    1
2019/09/12 18:08:16.442,  -0.64279997,   0.06620000,  -0.08530000,   0.03054326,  -0.01954769,  -0.21135937,  -0.01537795,  -0.16375205,  -1.84689927,    1
2019/09/12 18:08:16.451,  -0.64279997,   0.06620000,  -0.08530000,   0.03054326,  -0.01954769,  -0.21135937,  -0.01537795,  -0.16375205,  -1.84627700,    1
2019/09/12 18:08:16.476,  -0.34430000,   0.04730000,   0.30159998,   0.03054326,  -0.01954769,  -0.21135937,  -0.01731578,  -0.16023435,  -1.83843029,    1
2019/09/12 18:08:16.487,   0.30949998,   0.05450000,   0.85149997,   0.03054326,  -0.01954769,  -0.21135937,  -0.01860075,  -0.16056792,  -1.84187555,    1
2019/09/12 18:08:16.494,  -0.09630000,   0.10040000,  -0.04130000,   0.03054326,  -0.01954769,  -0.21135937,  -0.02094658,  -0.15995568,  -1.84219813,    1
2019/09/12 18:08:16.515,  -0.09630000,   0.10040000,  -0.04130000,   0.03054326,  -0.01954769,  -0.21135937,  -0.02094658,  -0.15995568,  -1.83961606,    1
2019/09/12 18:08:16.522,  -1.08980000,  -0.05910000,  -0.48179999,   0.03054326,  -0.01954769,  -0.21135937,  -0.02223179,  -0.16028082,  -1.83975482,    1
2019/09/12 18:08:16.529,  -1.08980000,  -0.05910000,  -0.48179999,   0.03054326,  -0.01954769,  -0.21135937,  -0.02223179,  -0.16028082,  -1.84407854,    1
2019/09/12 18:08:16.535,  -1.28419995,  -0.27599999,   0.19559999,   0.03054326,  -0.01954769,  -0.21135937,  -0.02133426,  -0.14782983,  -1.84466028,    1
2019/09/12 18:08:16.553,  -1.28419995,  -0.27599999,   0.19559999,   0.03054326,  -0.01954769,  -0.21135937,  -0.02133426,  -0.14782983,  -1.84406114,    1
2019/09/12 18:08:16.558,  -0.60069996,  -1.22939992,   1.35350001,   0.03054326,  -0.01954769,  -0.21135937,  -0.02256836,  -0.14815310,  -1.84418821,    1
2019/09/12 18:08:16.564,  -0.60069996,  -1.22939992,   1.35350001,   0.03054326,  -0.01954769,  -0.21135937,  -0.02256836,  -0.14815310,  -1.84438312,    1
2019/09/12 18:08:16.569,  -0.60069996,  -1.22939992,   1.35350001,   0.03665191,  -0.56077427,  -0.41294491,  -0.02256836,  -0.14815310,  -1.84438312,    1
2019/09/12 18:08:16.574,  -0.62159997,  -1.44449997,   1.52459991,   0.03665191,  -0.56077427,  -0.41294491,  -0.01241031,  -0.15233454,  -1.84301376,    1
2019/09/12 18:08:16.590,  -0.62159997,  -1.44449997,   1.52459991,   0.43860123,  -0.78801614,  -0.55955255,  -0.01241031,  -0.15233454,  -1.84358382,    1
2019/09/12 18:08:16.595,  -1.24220002,  -1.58499992,   0.29539999,   0.43860123,  -0.78801614,  -0.55955255,  -0.02283360,  -0.16799599,  -1.84386122,    1
2019/09/12 18:08:16.614,  -1.24220002,  -1.58499992,   0.29539999,   0.71349061,  -0.84543747,  -0.59742618,  -0.02283360,  -0.16799599,  -1.85043979,    1
2019/09/12 18:08:16.630,  -1.52989995,  -1.78249991,  -0.64239997,   0.69760811,  -0.74281216,  -0.45081854,  -0.02095678,  -0.17037858,  -1.86210859,    1
2019/09/12 18:08:16.650,  -1.27789998,  -2.30379987,  -1.12290001,   0.45570546,  -0.49113566,  -0.17104226,  -0.03624879,  -0.18513419,  -1.87156713,    1
2019/09/12 18:08:16.671,  -0.57040000,  -2.14380002,  -0.80179995,   0.11606439,   0.05009095,   0.10629055,  -0.02382293,  -0.19107625,  -1.87733650,    1
2019/09/12 18:08:16.701,  -0.89779997,  -1.86099994,   0.74229997,  -0.07819075,   0.73059481,   0.22479841,  -0.00683216,  -0.16680668,  -1.88326025,    1
2019/09/12 18:08:16.720,  -0.84679997,  -1.27160001,   0.40840000,  -0.06963864,   0.98349303,   0.23701571,  -0.00471115,  -0.14719979,  -1.88856959,    1
2019/09/12 18:08:16.737,  -0.21300000,  -0.92729998,   0.18689999,   0.03543019,   0.84665924,   0.41783181,   0.00447659,  -0.12821524,  -1.88127387,    1
2019/09/12 18:08:16.755,  -0.57519996,  -0.58179998,  -0.00850000,   0.05497787,   0.81489420,   0.55222219,   0.00470092,  -0.11188354,  -1.88657606,    1
2019/09/12 18:08:16.783,  -0.35420001,  -0.48319998,   0.13820000,  -0.06719518,   0.86620688,   0.59620446,   0.01182903,  -0.09106059,  -1.89752162,    1
2019/09/12 18:08:16.801,   0.21949999,  -0.15330000,   0.97659999,  -0.22724187,   0.97982782,   0.70371675,   0.01751965,  -0.07131909,  -1.89511943,    1
2019/09/12 18:08:16.817,   0.42010000,   0.38689998,   1.01450002,  -0.28710666,   1.13010073,   0.76235980,   0.02064071,  -0.05164226,  -1.89373434,    1
2019/09/12 18:08:16.833,   0.42010000,   0.38689998,   1.01450002,  -0.21380283,   1.22661734,   0.76724672,   0.02064071,  -0.05164226,  -1.89455688,    1
2019/09/12 18:08:16.851,   0.42589998,   0.60119998,   0.35889998,  -0.17715092,   1.01770151,   0.72937310,   0.02553655,  -0.02681017,  -1.89345348,    1
2019/09/12 18:08:16.870,  -0.12480000,   1.12109995,   0.01070000,  -0.37140608,   0.64629543,   0.65973443,   0.01848863,  -0.00476294,  -1.88842106,    1
2019/09/12 18:08:16.890,   0.95429999,   0.69309998,   1.12070000,  -0.60109138,   0.22602014,   0.67683870,   0.02591392,   0.00839519,  -1.88094234,    1
2019/09/12 18:08:16.918,   0.45440000,   0.22049999,   1.89230001,  -0.60597831,  -0.18448131,   0.53756142,   0.04591362,  -0.00066352,  -1.86384642,    1
2019/09/12 18:08:16.934,  -0.27129999,  -0.00350000,   1.72969997,  -0.44837508,  -0.32864550,   0.24190263,   0.04591362,  -0.00066352,  -1.85575426,    1
2019/09/12 18:08:16.950,  -0.27129999,  -0.00350000,   1.72969997,  -0.19058995,  -0.48014009,   0.02321288,   0.05414318,  -0.00471805,  -1.84417117,    1
2019/09/12 18:08:16.969,  -0.30559999,  -0.17250000,   1.43839991,   0.17470746,  -0.72570789,  -0.05009095,   0.05795281,  -0.01431086,  -1.83535945,    1
2019/09/12 18:08:16.990,   0.18500000,   0.52840000,   0.47639999,   0.52900928,  -1.10444438,  -0.20402899,   0.04934408,  -0.03043972,  -1.83137333,    1
2019/09/12 18:08:17.018,  -0.98269999,  -0.00680000,  -0.12740000,   0.67561698,  -1.56992364,  -0.52656585,   0.02451660,  -0.07497097,  -1.83345926,    1
2019/09/12 18:08:17.035,  -0.57830000,  -1.59019995,  -0.90549999,   0.65729100,  -2.04517674,  -0.84055054,   0.00992205,  -0.11628124,  -1.83827293,    1
2019/09/12 18:08:17.052,  -0.57830000,  -1.59019995,  -0.90549999,   0.57910025,  -2.12947631,  -0.86620688,   0.00992205,  -0.11628124,  -1.84324050,    1
2019/09/12 18:08:17.070,   0.12510000,  -2.52509999,  -0.06050000,   0.23335052,  -1.44164193,  -0.57421333,   0.01967166,  -0.16037500,  -1.84389234,    1
2019/09/12 18:08:17.090,   0.18009999,  -2.30449986,   1.95869994,  -0.04520403,  -0.32375857,  -0.16737707,   0.01311399,  -0.18945944,  -1.86045349,    1
2019/09/12 18:08:17.110,  -0.44380000,  -1.05939996,   2.43009996,   0.55100042,   0.78435099,   0.39828414,   0.02115066,  -0.18910226,  -1.86627197,    1
2019/09/12 18:08:17.135,   0.23699999,  -1.02349997,   1.31229997,   0.90652400,   0.81855941,   0.60964352,   0.01172712,  -0.17324141,  -1.86813879,    1
2019/09/12 18:08:17.154,   0.52529997,  -0.16309999,   0.07669999,   1.01037109,   0.75502944,   0.61453044,  -0.00265127,  -0.16156283,  -1.87033844,    1
2019/09/12 18:08:17.177,  -0.28880000,   0.26639998,  -0.80489999,   0.82588983,   0.79290307,   0.43493605,  -0.03917747,  -0.12905358,  -1.88538754,    1
2019/09/12 18:08:17.202,  -0.48780000,  -0.25610000,  -0.13650000,   0.51190507,   0.96638882,   0.33841935,  -0.04855768,  -0.11006308,  -1.88080978,    1
2019/09/12 18:08:17.219,  -1.27649999,  -0.13140000,   0.24470000,   0.26389378,   1.21317840,   0.34452799,  -0.05188633,  -0.07399486,  -1.89117134,    1
2019/09/12 18:08:17.235,  -0.89049995,  -0.61070001,   0.14530000,   0.22602014,   1.10810959,   0.48747045,  -0.05579757,  -0.05237640,  -1.90100980,    1
2019/09/12 18:08:17.253,  -0.89049995,  -0.61070001,   0.14530000,   0.37629297,   0.80145520,   0.62796944,  -0.05579757,  -0.05237640,  -1.90377188,    1
2019/09/12 18:08:17.270,  -0.98249996,  -0.38819999,  -0.18599999,   0.56443948,   0.34330627,   0.69027770,  -0.05914806,  -0.02748217,  -1.90500641,    1
2019/09/12 18:08:17.289,  -0.63010001,  -0.49509999,  -0.37669998,   0.66584313,  -0.02443461,   0.74403387,  -0.07017364,  -0.02149931,  -1.91278815,    1
2019/09/12 18:08:17.310,  -0.87549996,  -0.60539997,  -0.27460000,   0.68416905,  -0.08307767,   0.82466805,  -0.07750533,  -0.01445261,  -1.91289437,    1
2019/09/12 18:08:17.337,  -0.09310000,  -0.23760000,  -1.17320001,   0.69027770,   0.03909538,   0.96028018,  -0.10332921,  -0.01774707,  -1.91122961,    1
2019/09/12 18:08:17.355,  -0.56830001,  -0.10250000,  -1.11109996,   0.63163465,   0.12828170,   0.94073248,  -0.11574218,  -0.01722710,  -1.91094637,    1
2019/09/12 18:08:17.371,  -0.56830001,  -0.10250000,  -1.11109996,   0.45937064,   0.02321288,   0.92118478,  -0.11574218,  -0.01722710,  -1.91120005,    1
2019/09/12 18:08:17.390,  -0.17620000,   0.03650000,  -0.52079999,   0.30909780,  -0.05742133,   0.90530229,  -0.12572671,  -0.01725828,  -1.90871942,    1
2019/09/12 18:08:17.411,  -0.31770000,   0.08750000,  -0.25779998,   0.23457225,  -0.10995574,   0.88086766,  -0.13161765,  -0.02075898,  -1.90970898,    1
2019/09/12 18:08:17.437,   0.91839999,   1.04740000,   0.23420000,   0.19547687,  -0.15515977,   0.83810711,  -0.14498158,  -0.03400386,  -1.90545607,    1
2019/09/12 18:08:17.455,   0.77709997,   1.17009997,   0.14010000,   0.14172074,  -0.17959438,   0.66706485,  -0.15773080,  -0.04674966,  -1.90115225,    1
2019/09/12 18:08:17.471,   0.77709997,   1.17009997,   0.14010000,   0.04764749,  -0.13194689,   0.43860123,  -0.15773080,  -0.04674966,  -1.88930595,    1
2019/09/12 18:08:17.491,   0.34599999,   0.87070000,   0.46640000,  -0.08552113,  -0.10629055,   0.23090705,  -0.15826857,  -0.05081698,  -1.88871622,    1
2019/09/12 18:08:17.510,   0.52440000,   0.69790000,   0.93509996,  -0.20647246,  -0.13439035,   0.17959438,  -0.16094312,  -0.05780158,  -1.87691867,    1
2019/09/12 18:08:17.538,   0.71439999,   0.23330000,   0.47169998,  -0.22724187,  -0.23701571,   0.22357668,  -0.15315863,  -0.07270274,  -1.87303758,    1
2019/09/12 18:08:17.555,   0.32740000,   0.11189999,   0.57239997,  -0.16982053,  -0.50335294,   0.20036380,  -0.14946571,  -0.08335704,  -1.86444330,    1
2019/09/12 18:08:17.572,   0.32740000,   0.11189999,   0.57239997,  -0.12705997,  -0.76480329,   0.16126843,  -0.14946571,  -0.08335704,  -1.86877930,    1
2019/09/12 18:08:17.590,  -0.34129998,  -0.10640000,   0.00890000,  -0.05742133,  -1.08978355,   0.10384709,  -0.14566256,  -0.09580036,  -1.85817909,    1
2019/09/12 18:08:17.611,  -0.98439997,  -0.54439998,  -0.52919996,  -0.05009095,  -1.51128054,   0.08918633,  -0.14429127,  -0.11790698,  -1.84864926,    1
2019/09/12 18:08:17.639,  -0.54920000,  -1.31869996,  -0.62409997,  -0.12828170,  -2.07327652,   0.25656340,  -0.13610439,  -0.18228844,  -1.83225155,    1
2019/09/12 18:08:17.655,  -0.10140000,  -0.43719998,  -0.17330000,  -0.15271631,  -2.47033906,   0.45937064,  -0.12706234,  -0.23232737,  -1.81961560,    1
2019/09/12 18:08:17.672,  -0.10140000,  -0.43719998,  -0.17330000,  -0.21258110,  -2.52531695,   0.45937064,  -0.12706234,  -0.23232737,  -1.80858278,    1
2019/09/12 18:08:17.690,   0.76879996,  -0.31459999,   0.78920001,  -0.32131511,  -2.34938765,   0.50823987,  -0.12044510,  -0.28390667,  -1.79232621,    1
2019/09/12 18:08:17.709,   0.80299997,  -0.52370000,   0.81979996,  -0.35918877,  -1.81793499,   0.38728857,  -0.10553287,  -0.33616474,  -1.78152108,    1
2019/09/12 18:08:17.730,   0.56309998,  -0.05860000,   0.05240000,  -0.40927970,  -0.48502699,   0.37507126,  -0.09598134,  -0.37308148,  -1.76632369,    1
2019/09/12 18:08:17.755,   1.99210000,  -0.22350000,   0.28860000,  -0.51068336,   0.42394048,   0.39584067,  -0.07351662,  -0.38898420,  -1.76088083,    1
2019/09/12 18:08:17.772,   1.99210000,  -0.22350000,   0.28860000,  -0.62796944,   1.32924271,   0.19181168,  -0.07351662,  -0.38898420,  -1.75233281,    1
2019/09/12 18:08:17.789,  -0.59209996,  -0.68689996,  -0.86600000,  -0.70738196,   2.04028988,   0.18448131,  -0.05354077,  -0.35973281,  -1.74712849,    1
2019/09/12 18:08:17.810,  -1.48659992,  -0.28919998,  -1.76879990,  -0.94073248,   2.30662704,   0.42638394,  -0.03884074,  -0.31901076,  -1.73953712,    1
2019/09/12 18:08:17.830,  -1.11369991,  -0.24939999,  -1.44509995,  -1.31091678,   2.21621919,   0.51801372,  -0.01557186,  -0.26503021,  -1.73707879,    1
2019/09/12 18:08:17.855,  -1.04320002,  -0.52209997,   0.15930000,  -1.52105439,   1.78983510,   0.42271873,   0.04921105,  -0.17503650,  -1.72140574,    1
2019/09/12 18:08:17.873,  -1.04320002,  -0.52209997,   0.15930000,  -1.47951555,   1.37444675,   0.30421090,   0.04921105,  -0.17503650,  -1.71156967,    1
2019/09/12 18:08:17.890,  -0.79659998,  -0.32659999,   1.61589992,  -1.16675258,   0.87598073,   0.18081611,   0.07947942,  -0.14754345,  -1.69340539,    1
2019/09/12 18:08:17.910,  -0.69720000,  -0.08380000,   3.06320000,  -0.57299161,   0.40194932,   0.04398230,   0.10152408,  -0.12210344,  -1.68124437,    1
2019/09/12 18:08:17.930,  -0.59959996,   0.20359999,   2.90909982,   0.08674286,   0.28710666,   0.00855211,   0.11300181,  -0.11413314,  -1.66672218,    1
2019/09/12 18:08:17.956,   0.15770000,   0.29699999,   0.95199996,   0.56077427,   0.38362336,   0.06841691,   0.09629817,  -0.09635668,  -1.65871823,    1
2019/09/12 18:08:17.973,   0.15770000,   0.29699999,   0.95199996,   0.69882983,   0.18203785,   0.13683382,   0.09629817,  -0.09635668,  -1.66412234,    1
2019/09/12 18:08:17.989,   0.31659999,   0.21149999,   0.33899999,   0.47647488,   0.12705997,   0.21258110,   0.08036893,  -0.09499729,  -1.66783834,    1
2019/09/12 18:08:18.010,   1.02090001,  -0.04340000,   0.72189999,   0.27977628,   0.52290064,   0.26755896,   0.07125714,  -0.09206674,  -1.66774106,    1
2019/09/12 18:08:18.031,   1.27380002,  -0.09810000,   0.50330001,   0.17470746,   0.48869219,   0.31642818,   0.06663731,  -0.09225320,  -1.67923355,    1
2019/09/12 18:08:18.058,   2.02779984,   0.24939999,   0.35900000,   0.17959438,   0.46303585,   0.27000242,   0.05798352,  -0.09028535,  -1.69371533,    1
2019/09/12 18:08:18.072,   2.02779984,   0.24939999,   0.35900000,   0.21991149,   0.52412236,   0.16615534,   0.05798352,  -0.09028535,  -1.69079757,    1
2019/09/12 18:08:18.091,   0.75790000,   0.44489998,  -0.00490000,   0.17348573,   0.35796702,   0.01954769,   0.05386710,  -0.07961499,  -1.69214725,    1
2019/09/12 18:08:18.110,   0.05440000,  -0.07900000,  -0.38349998,   0.13072516,   0.38362336,   0.00733038,   0.05141647,  -0.07325566,  -1.69305205,    1
2019/09/12 18:08:18.130,  -0.14590000,   0.02310000,  -0.87049997,   0.07574729,   0.43982297,   0.04764749,   0.04881287,  -0.06558073,  -1.68398750,    1
2019/09/12 18:08:18.149,  -0.80629998,  -0.07770000,  -0.69369996,  -0.02076942,   0.56810468,   0.04031711,   0.04851715,  -0.04872768,  -1.67656171,    1
2019/09/12 18:08:18.173,  -0.90179998,  -0.37739998,  -0.09999999,  -0.10506882,   0.67073005,   0.02565634,   0.04895609,  -0.03734470,  -1.67354941,    1
2019/09/12 18:08:18.189,  -0.73280001,  -0.19239999,   0.06320000,  -0.07941248,   0.69882983,   0.07452556,   0.05286659,  -0.01690081,  -1.67535722,    1
2019/09/12 18:08:18.210,  -0.62599999,  -0.22600000,  -0.15300000,  -0.01832596,   0.59620446,   0.11850785,   0.05445976,  -0.00285947,  -1.67269766,    1
2019/09/12 18:08:18.230,  -0.28520000,  -0.27309999,  -0.30750000,  -0.00733038,   0.45326200,   0.15882497,   0.05768691,   0.01204281,  -1.67674768,    1
2019/09/12 18:08:18.249,  -0.17600000,   0.48269999,  -0.12940000,  -0.04276057,   0.39950585,   0.18814649,   0.05776890,   0.02127795,  -1.66939521,    1
2019/09/12 18:08:18.272,   0.21679999,  -0.13130000,  -0.52869999,  -0.11117747,   0.35674530,   0.18814649,   0.06017932,   0.02740188,  -1.67276239,    1
2019/09/12 18:08:18.291,   0.15079999,   0.28119999,  -0.52520001,  -0.21502456,   0.22357668,   0.17715092,   0.06227371,   0.03475501,  -1.67182934,    1
2019/09/12 18:08:18.310,   2.54859996,   0.14219999,   2.66890001,  -0.27244589,   0.21868975,   0.14172074,   0.06412301,   0.02011073,  -1.67220271,    1
2019/09/12 18:08:18.330,  -0.24129999,   0.99849999,   1.37889993,  -0.15271631,   1.11299646,  -0.09162979,   0.06949934,   0.02465783,  -1.66804874,    1
2019/09/12 18:08:18.350,  -0.80559999,  -0.23959999,  -1.34949994,  -0.17715092,   0.65729100,   0.02565634,   0.07631889,   0.05653438,  -1.67140853,    1
2019/09/12 18:08:18.375,  -1.45349991,  -0.78829998,   0.08280000,  -0.40561453,   0.38240165,   0.21991149,   0.09459838,   0.09111523,  -1.65977967,    1
2019/09/12 18:08:18.391,  -1.45349991,  -0.78829998,   0.08280000,  -0.42271873,   0.23579398,   0.25900686,   0.09459838,   0.09111523,  -1.65902162,    1
2019/09/12 18:08:18.410,  -0.96199995,   0.18079999,  -1.23850000,  -0.42271873,   0.28955013,   0.32253686,   0.10252900,   0.09640663,  -1.65559101,    1
2019/09/12 18:08:18.429,  -0.59880000,   0.26940000,  -1.13940001,  -0.58887410,   0.24923302,   0.31887165,   0.10865094,   0.11078408,  -1.64270151,    1
2019/09/12 18:08:18.450,   0.54429996,   0.52260000,  -0.53259999,  -0.75502944,   0.30909780,   0.31154126,   0.11964420,   0.11663114,  -1.62963021,    1
2019/09/12 18:08:18.471,  -0.06270000,   0.40140000,   2.44560003,  -0.83199847,   0.75991637,   0.18325958,   0.12842941,   0.12197781,  -1.61918569,    1
2019/09/12 18:08:18.492,  -0.71689999,   0.84990001,   3.00629997,  -0.51923543,   0.83688539,   0.18081611,   0.14445649,   0.13797256,  -1.59636307,    1
2019/09/12 18:08:18.510,  -1.32719994,  -0.43809998,   0.29189998,  -0.15638150,   0.62674773,   0.29810223,   0.15735890,   0.16695130,  -1.57162285,    1
2019/09/12 18:08:18.529,  -0.75830001,  -0.47749999,  -0.29040000,  -0.24923302,   0.33841935,   0.40317106,   0.15939350,   0.18050200,  -1.56415915,    1
2019/09/12 18:08:18.550,  -0.86869997,   1.31629992,   0.10730000,  -0.43004912,  -0.03909538,   0.39584067,   0.15012641,   0.19658652,  -1.55733037,    1
2019/09/12 18:08:18.569,  -0.08980000,   2.13769984,  -0.56779999,  -0.58154368,  -0.28099802,   0.27000242,   0.15701929,   0.19725181,  -1.54210603,    1
2019/09/12 18:08:18.594,  -2.51099992,   2.59850001,   1.40799999,  -0.75014251,  -0.27366763,   0.10140363,   0.14681698,   0.20636752,  -1.54373217,    1
2019/09/12 18:08:18.609,  -2.51099992,   2.59850001,   1.40799999,  -0.61208695,  -0.32498032,   0.32742378,   0.16109915,   0.20166253,  -1.53755057,    1
2019/09/12 18:08:18.631,  -2.23129988,   1.60609996,   1.19729996,  -0.12583824,  -0.55955255,   0.85154617,   0.15681212,   0.21250226,  -1.52855945,    1
2019/09/12 18:08:18.649,  -1.86949992,   0.84059995,   0.53160000,   0.23212878,  -0.77091193,   1.28281701,   0.15572879,   0.20400509,  -1.51966834,    1
2019/09/12 18:08:18.671,  -0.92389995,   0.39600000,  -0.00340000,   0.41538835,  -0.79168135,   1.51005888,   0.14211696,   0.20090061,  -1.52215993,    1
2019/09/12 18:08:18.693,  -0.60200000,  -0.21139999,  -0.18130000,   0.54489177,  -0.77579886,   1.56259322,   0.12792614,   0.18891886,  -1.51946247,    1
2019/09/12 18:08:18.710,   1.44939995,  -1.90769994,   0.11009999,   0.71959925,  -0.70738196,   1.42453778,   0.12896521,   0.16331454,  -1.50957537,    1
2019/09/12 18:08:18.730,   1.10290003,  -0.85499996,   0.50319999,   0.97982782,  -0.64263022,   0.91507614,   0.11000454,   0.15232173,  -1.52099347,    1
2019/09/12 18:08:18.750,   0.72499996,  -1.24059999,  -1.59609997,   1.25105202,  -0.63163465,   0.44593161,   0.10359552,   0.13525945,  -1.53513587,    1
2019/09/12 18:08:18.769,   1.19050002,  -2.11100006,  -2.47729993,   1.41842914,   0.25289822,   0.19914207,   0.07749478,   0.12316883,  -1.55536461,    1
2019/09/12 18:08:18.793,   0.54809999,  -2.78269982,  -1.95299995,   1.02503192,   1.20706975,  -0.06108652,   0.08104419,   0.12472934,  -1.31577170,    1
2019/09/12 18:08:18.809,   0.62199998,  -1.72289991,  -1.85679996,  -0.26389378,   1.37200332,  -0.23090705,   0.06088449,   0.14855754,  -1.33609474,    1
2019/09/12 18:08:18.829,   0.81959999,  -1.49769998,  -0.47819999,  -1.12154853,   1.88513017,  -0.02932153,   0.08208787,   0.16842031,  -1.34501827,    1
2019/09/12 18:08:18.850,   0.24640000,  -2.26499987,   0.60049999,  -0.92973691,   2.20400167,   0.27122417,   0.10413869,   0.20652041,  -1.33394456,    1
2019/09/12 18:08:18.869,   1.06289995,  -0.79020000,   1.76379991,  -0.22846361,   2.16857147,   0.56810468,   0.12586969,   0.23964879,  -1.31899500,    1
2019/09/12 18:08:18.890,   1.35339999,  -1.10079992,   1.12249994,   0.49602258,   1.84236956,   0.67439520,   0.12720630,   0.28459060,  -1.28847432,    1
2019/09/12 18:08:18.910,   1.42250001,  -1.29779994,   0.16049999,   0.91263264,   1.50272846,   0.31887165,   0.12610625,   0.30905724,  -1.26508451,    1
2019/09/12 18:08:18.929,   1.03759992,  -0.51489997,  -0.66999996,   0.89919364,   1.41720736,  -0.13072516,   0.10664047,   0.33910832,  -1.25642133,    1
2019/09/12 18:08:18.949,   0.45739999,  -0.34770000,  -0.30640000,   0.68050385,   2.32006621,  -0.26389378,   0.09451587,   0.36332989,  -1.26015735,    1
2019/09/12 18:08:18.969,   0.50580001,  -0.47200000,   0.53700000,   0.88208938,   2.54608631,  -0.31154126,   0.08370499,   0.40879515,  -1.28203070,    1
2019/09/12 18:08:18.990,   0.69919997,  -0.32359999,   0.90840000,   1.18019164,   2.60717273,  -0.36651915,   0.07269860,   0.44927609,  -1.29939663,    1
2019/09/12 18:08:19.010,  -0.18009999,   0.06160000,   0.71239996,   1.43797672,   2.64382482,  -0.25778514,   0.05479660,   0.50021154,  -1.31664491,    1
2019/09/12 18:08:19.030,  -0.76339996,   0.63879997,   0.83749998,   1.66155338,   2.63649440,  -0.10140363,   0.02637311,   0.55391848,  -1.33868957,    1
2019/09/12 18:08:19.049,  -0.18930000,   0.59119999,   0.87790000,   1.83870435,   2.71224165,   0.05619960,  -0.00071381,   0.60622573,  -1.36289799,    1
2019/09/12 18:08:19.069,   0.45069999,   0.27390000,   0.00700000,   1.71164441,   2.03295946,   0.11972959,  -0.03438154,   0.65702695,  -1.39997637,    1
2019/09/12 18:08:19.089,  -0.58779997,   1.10479999,  -1.22070003,   1.19363070,   1.52594137,   0.08796459,  -0.06293806,   0.69848239,  -1.47010708,    1
2019/09/12 18:08:19.111,  -0.21079999,   1.09700000,  -2.30149984,   0.49480084,   1.20829141,   0.10506882,  -0.09612420,   0.74869925,  -1.51800728,    1
2019/09/12 18:08:19.130,  -0.81860000,   0.87489998,  -1.19910002,  -0.22357668,   0.98715824,   0.24801129,  -0.10489724,   0.77337676,  -1.58786464,    1
2019/09/12 18:08:19.149,  -0.29130000,   0.19000000,   0.15410000,  -0.58032197,   0.75625116,   0.24556783,  -0.10676382,   0.79330277,  -1.65343547,    1
2019/09/12 18:08:19.169,  -0.48859999,  -0.00150000,  -0.38020000,  -0.55344391,   0.49846604,   0.03909538,  -0.10224286,   0.80720317,  -1.67400289,    1
2019/09/12 18:08:19.189,  -0.64760000,   0.52709997,  -0.77910000,  -0.39950585,   0.62674773,  -0.13927728,  -0.10030539,   0.82592720,  -1.63033271,    1
2019/09/12 18:08:19.211,  -1.58319998,   0.98089999,   0.03850000,  -0.21380283,   0.91629785,  -0.07086037,  -0.09292851,   0.83808476,  -1.59416175,    1
2019/09/12 18:08:19.229,  -0.97129995,   0.72950000,   0.43509999,   0.00733038,   0.75502944,   0.04764749,  -0.09458729,   0.85879815,  -1.52279878,    1
2019/09/12 18:08:19.249,  -0.29899999,   0.91700000,  -0.74779999,   0.11362094,   0.48136181,  -0.05131268,  -0.09547871,   0.87384802,  -1.47591484,    1
2019/09/12 18:08:19.270,  -0.40359998,   1.00739992,  -1.17159998,   0.08307767,   0.59620446,  -0.13805555,  -0.10641497,   0.89494866,  -1.45125866,    1
2019/09/12 18:08:19.289,  -1.24140000,   1.67479992,  -0.69720000,   0.07330383,   0.78557271,  -0.05619960,  -0.10533826,   0.90717745,  -1.51938844,    1
2019/09/12 18:08:19.310,  -0.98769999,   1.01759994,  -0.00130000,   0.04642576,   0.51190507,   0.12950343,  -0.11347356,   0.92816758,  -1.54334545,    1
2019/09/12 18:08:19.330,   0.78419995,   0.53079998,  -0.67600000,  -0.14416419,   0.37018433,   0.09162979,  -0.11616310,   0.93829697,  -1.51927578,    1
2019/09/12 18:08:19.350,  -0.37840000,   0.49789998,   0.83059996,  -0.41783181,   0.42394048,  -0.09896017,  -0.11956114,   0.94132721,  -1.51016819,    1
2019/09/12 18:08:19.370,  -1.02450001,   0.40329999,   1.26999998,  -0.57787853,   0.22602014,  -0.20891590,  -0.11311453,   0.94914865,  -1.47250414,    1
2019/09/12 18:08:19.389,  -0.80170000,   0.07780000,   2.31410003,  -0.64751714,  -0.07452556,  -0.16982053,  -0.10214007,   0.94183123,  -1.40935111,    1
2019/09/12 18:08:19.410,  -0.33640000,  -0.54799998,   2.60389996,  -0.58643061,  -0.36041048,  -0.10384709,  -0.09182271,   0.93949592,  -1.39712632,    1
2019/09/12 18:08:19.431,  -0.43989998,  -1.13230002,   2.46669984,  -0.46059239,  -0.62552601,  -0.16126843,  -0.07317964,   0.91790479,  -1.36946547,    1
2019/09/12 18:08:19.450,  -0.37500000,  -1.35769999,   2.49199986,  -0.38851029,  -0.86131996,  -0.28832838,  -0.06507362,   0.90499580,  -1.33332658,    1
2019/09/12 18:08:19.469,  -0.70859998,  -0.75129998,   2.11649990,  -0.28588492,  -1.13865280,  -0.43982297,  -0.04906857,   0.87808162,  -1.31446826,    1
2019/09/12 18:08:19.489,  -1.09329998,  -0.28909999,   1.89649999,  -0.16859880,  -1.43797672,  -0.60964352,  -0.03884067,   0.85535610,  -1.32005703,    1
2019/09/12 18:08:19.510,  -1.35869992,   1.28199995,   1.05999994,   0.00366519,  -1.76051366,  -0.67195177,  -0.03760597,   0.82791823,  -1.26861119,    1
2019/09/12 18:08:19.533,  -1.73710001,   2.32459998,   0.41049999,   0.44470990,  -1.65055788,  -0.52290064,  -0.02819905,   0.79305172,  -1.33548796,    1
2019/09/12 18:08:19.549,  -1.62879992,   2.87800002,  -0.40950000,   1.20829141,  -1.04457951,  -0.14782938,  -0.05099786,   0.77264035,  -1.32915282,    1
2019/09/12 18:08:19.569,   0.47239998,   0.88409996,  -1.61399996,   1.89490402,  -0.28955013,   0.47403142,  -0.06647360,   0.75292391,  -1.41446257,    1
2019/09/12 18:08:19.588,   0.80789995,   0.02990000,  -1.44209993,   1.69454014,   0.07086037,   0.47036624,  -0.10304143,   0.75335228,  -1.45778143,    1
2019/09/12 18:08:19.609,   0.10070000,  -0.34090000,  -1.26619995,   1.44530714,   0.23945917,   0.54367006,  -0.13436446,   0.75671190,  -1.55751133,    1
2019/09/12 18:08:19.631,   0.82419997,  -0.66619998,  -1.11609995,   1.16186571,   0.31887165,   0.54244834,  -0.15798979,   0.76533967,  -1.65367186,    1
2019/09/12 18:08:19.648,   0.54579997,  -0.90009999,   0.06290000,   0.99204516,   0.32986721,   0.43371433,  -0.18241833,   0.77313107,  -1.75659716,    1
2019/09/12 18:08:19.669,   0.11170000,  -0.25180000,  -0.22589999,   0.99815381,   0.27977628,   0.32498032,  -0.20080400,   0.78202069,  -1.83612132,    1
2019/09/12 18:08:19.689,  -0.46239999,   0.08899999,  -0.03990000,   1.04824471,   0.45081854,   0.28344148,  -0.21962593,   0.78961676,  -1.90409136,    1
2019/09/12 18:08:19.708,  -0.26589999,   0.38569999,  -0.35839999,   1.06779242,   0.47647488,   0.28955013,  -0.24215856,   0.80548286,  -1.96847308,    1
2019/09/12 18:08:19.729,   0.23230000,   0.65759999,  -1.43809998,   0.99448860,   0.36529741,   0.33353242,  -0.26119494,   0.81792325,  -2.01276040,    1
2019/09/12 18:08:19.749,   0.78299999,   0.65950000,  -1.77919996,   0.87353730,   0.35552356,   0.37018433,  -0.29245842,   0.83714694,  -2.06226182,    1
2019/09/12 18:08:19.768,   0.39330000,   0.36179999,  -1.43449998,   0.71226889,   0.41783181,   0.35430184,  -0.30974650,   0.84673792,  -2.10273099,    1
2019/09/12 18:08:19.789,   0.50449997,  -0.23349999,  -1.33289993,   0.48136181,   0.31154126,   0.31031954,  -0.32644010,   0.86497259,  -2.17612433,    1
2019/09/12 18:08:19.809,   0.99229997,  -0.68799996,  -0.99390000,   0.23579398,   0.31887165,   0.22479841,  -0.33747360,   0.87233877,  -2.20567846,    1
2019/09/12 18:08:19.829,   0.83319998,  -0.47679999,  -0.31329998,   0.03054326,   0.36529741,   0.05131268,  -0.34226486,   0.87566030,  -2.27943778,    1
2019/09/12 18:08:19.849,   0.76449996,  -0.46840000,   0.51480001,   0.00366519,   0.34086281,  -0.05375614,  -0.34348759,   0.88289130,  -2.31231856,    1
2019/09/12 18:08:19.869,   0.43279999,  -0.56619996,   0.86640000,   0.04153883,   0.13683382,  -0.15393804,  -0.33703116,   0.88041180,  -2.35693789,    1
2019/09/12 18:08:19.888,  -0.13970000,   0.18590000,   0.21169999,   0.06108652,  -0.12583824,  -0.28710666,  -0.33521575,   0.88404113,  -2.34663987,    1
2019/09/12 18:08:19.909,  -0.56369996,   0.69409996,  -0.14309999,  -0.02565634,  -0.19914207,  -0.32498032,  -0.33648038,   0.88755536,  -2.34814835,    1
2019/09/12 18:08:19.929,  -0.95859998,   1.01749992,  -0.10439999,  -0.09529497,  -0.20769417,  -0.22357668,  -0.33115780,   0.88484454,  -2.30471492,    1
2019/09/12 18:08:19.951,  -1.11780000,   0.46980000,   0.70440000,  -0.22235495,  -0.28588492,  -0.14294246,  -0.32672977,   0.88261312,  -2.30901623,    1
2019/09/12 18:08:19.969,   0.95580000,   0.78049999,   0.35580000,  -0.25411993,  -0.30176744,  -0.09407324,  -0.32174805,   0.87633467,  -2.27564430,    1
2019/09/12 18:08:19.989,  -0.88249999,   0.34950000,   1.71159995,  -0.33231068,  -0.73059481,  -0.12461651,  -0.31532663,   0.86318690,  -2.31091070,    1
2019/09/12 18:08:20.009,  -0.24810000,   0.57309997,   1.41329992,  -0.33108896,  -1.18630028,  -0.16859880,  -0.30917692,   0.84746194,  -2.27429104,    1
2019/09/12 18:08:20.029,  -0.53039998,   0.74659997,   0.69059998,  -0.09285152,  -1.32069063,  -0.10995574,  -0.30632189,   0.82157797,  -2.30133820,    1
2019/09/12 18:08:20.052,  -0.11470000,   0.28149998,   1.05779994,   0.16004670,  -0.87231559,   0.10262536,  -0.30360475,   0.79524392,  -2.24884105,    1
2019/09/12 18:08:20.070,   0.20709999,  -0.34540001,   0.57569999,   0.42149702,  -0.54855698,   0.27244589,  -0.30353123,   0.77256024,  -2.26050544,    1
2019/09/12 18:08:20.090,   0.50029999,  -0.73139995,   0.88319999,   0.51434851,  -0.32253686,   0.31764993,  -0.31344208,   0.76220930,  -2.20280743,    1
2019/09/12 18:08:20.110,   0.31389999,  -0.88760000,   0.59700000,   0.48258352,  -0.37629297,   0.21258110,  -0.31655091,   0.75002539,  -2.23109818,    1
2019/09/12 18:08:20.129,  -0.16210000,  -0.52899998,  -0.37160000,   0.57421333,  -0.36041048,   0.12950343,  -0.32657757,   0.74363703,  -2.20978165,    1
2019/09/12 18:08:20.151,   0.13660000,  -0.50849998,  -0.23830000,   0.66339964,  -0.09040806,   0.17104226,  -0.33288419,   0.73905611,  -2.26572251,    1
2019/09/12 18:08:20.170,   0.05420000,  -0.36499998,  -0.29479998,   0.68416905,   0.08796459,   0.15760323,  -0.34504887,   0.73948568,  -2.27684498,    1
2019/09/12 18:08:20.189,  -0.71020001,  -0.27579999,  -0.56019998,   0.71471232,   0.19303341,   0.04153883,  -0.35461140,   0.75301445,  -2.30809021,    1
2019/09/12 18:08:20.210,  -1.18809998,  -0.11130000,  -0.67359996,   0.63529986,   0.21380283,   0.10629055,  -0.36563009,   0.76029474,  -2.31584048,    1
2019/09/12 18:08:20.229,   0.08700000,  -0.01430000,  -1.21369994,   0.56810468,   0.26511550,   0.08185595,  -0.37984127,   0.77625984,  -2.37628126,    1
2019/09/12 18:08:20.250,   0.89910001,   0.11770000,  -2.64899993,   0.28832838,   0.22724187,  -0.06841691,  -0.38912380,   0.78429151,  -2.38021636,    1
2019/09/12 18:08:20.270,   0.44459999,   0.04570000,  -1.73379993,  -0.12461651,   0.12583824,  -0.18570304,  -0.39933091,   0.80206901,  -2.37411571,    1
2019/09/12 18:08:20.289,   0.43469998,  -0.16030000,  -1.53079998,  -0.38973203,   0.05253441,  -0.21135937,  -0.39497167,   0.80489814,  -2.37663531,    1
2019/09/12 18:08:20.309,   0.27050000,  -0.26710001,  -1.28609991,  -0.63652158,  -0.06841691,  -0.22602014,  -0.38829708,   0.81348658,  -2.38854480,    1
2019/09/12 18:08:20.329,   0.17019999,  -0.45330000,  -1.12549996,  -0.81122905,  -0.03054326,  -0.20158553,  -0.37632817,   0.80962896,  -2.36343908,    1
2019/09/12 18:08:20.350,   0.09770000,  -0.92219996,   0.23740000,  -0.88453287,   0.10018190,  -0.17959438,  -0.35344782,   0.80303758,  -2.35722494,    1
2019/09/12 18:08:20.370,   0.22989999,  -1.17900002,   1.70249999,  -0.81245077,   0.09040806,  -0.22479841,  -0.33863130,   0.80132276,  -2.33645916,    1
2019/09/12 18:08:20.390,  -0.02180000,  -0.70349997,   2.02009988,  -0.59376103,   0.03787364,  -0.29443705,  -0.31467363,   0.78747588,  -2.31082058,    1
2019/09/12 18:08:20.409,   0.02960000,  -0.23490000,   1.82330000,  -0.38240165,  -0.03420845,  -0.31031954,  -0.30218396,   0.78686339,  -2.27173305,    1
2019/09/12 18:08:20.429,   0.28889999,   0.35400000,   1.79999995,  -0.22602014,   0.01099557,  -0.30665433,  -0.29261765,   0.77274632,  -2.24762392,    1
2019/09/12 18:08:20.450,  -0.62439996,   1.27679992,   1.38679993,   0.01466077,   0.10629055,  -0.25778514,  -0.28514963,   0.77331543,  -2.21641994,    1
2019/09/12 18:08:20.470,  -0.58080000,   1.01909995,   0.90009999,   0.25411993,   0.08063421,  -0.12828170,  -0.28755194,   0.77466047,  -2.20145011,    1
2019/09/12 18:08:20.490,  -0.25920001,   1.00179994,   0.13030000,   0.45081854,   0.02321288,  -0.00366519,  -0.28941426,   0.77784455,  -2.21819115,    1
2019/09/12 18:08:20.509,  -0.91630000,   0.91169995,  -0.22059999,   0.56077427,   0.22479841,   0.13316862,  -0.30226025,   0.78769428,  -2.24766850,    1
2019/09/12 18:08:20.528,  -0.13020000,  -0.13059999,  -1.81540000,   0.58643061,   0.32742378,   0.22479841,  -0.31210166,   0.79408860,  -2.24370885,    1
2019/09/12 18:08:20.549,  -0.16460000,  -0.58499998,  -0.55320001,   0.35430184,   0.23945917,   0.14538592,  -0.31882632,   0.80778474,  -2.27245235,    1
2019/09/12 18:08:20.571,  -0.69260001,  -0.72839999,  -0.77410001,   0.38117990,   0.29443705,   0.00855211,  -0.32586905,   0.81360102,  -2.28408074,    1
2019/09/12 18:08:20.589,   0.05230000,  -0.84559995,  -0.77309996,   0.49357912,   0.46792278,  -0.01832596,  -0.32476202,   0.82718748,  -2.29868793,    1
2019/09/12 18:08:20.609,   1.72909999,  -1.92469990,  -0.47270000,   0.78557271,   0.97860610,  -0.05864306,  -0.33117956,   0.83908010,  -2.33738160,    1
2019/09/12 18:08:20.629,   0.75629997,  -1.18299997,   1.10430002,   1.31458199,   1.41232038,  -0.11606439,  -0.32945338,   0.84933048,  -2.41270804,    1
2019/09/12 18:08:20.649,  -0.72719997,  -0.12899999,  -0.24159999,   1.96820784,   1.59435833,  -0.17226399,  -0.34497267,   0.88503027,  -2.48393178,    1
2019/09/12 18:08:20.670,  -0.32150000,   0.63159996,  -0.38189998,   1.78006124,   0.78068578,  -0.09407324,  -0.37237322,   0.93398422,  -2.57933259,    1
2019/09/12 18:08:20.690,   0.34439999,   0.48559999,   1.21379995,   1.00426245,  -0.01343904,  -0.05619960,  -0.39183739,   0.96146601,  -2.65606189,    1
2019/09/12 18:08:20.709,  -0.45420000,   1.15699995,   1.73109996,   1.09833574,  -0.02809980,  -0.08552113,  -0.40664718,   0.95810115,  -2.73207831,    1
2019/09/12 18:08:20.729,  -1.98219991,   3.09109998,   0.15680000,   1.46729827,  -0.01099557,  -0.01343904,  -0.42627263,   0.98086786,  -2.79014945,    1
2019/09/12 18:08:20.749,  -0.41229999,   1.62989998,  -0.71619999,   1.56870198,   0.09651671,   0.02321288,  -0.45528293,   0.99986202,  -2.83144975,    1
2019/09/12 18:08:20.770,   0.23379999,  -1.15689993,  -1.57799995,   1.63834059,   0.38240165,   0.00488692,  -0.47581232,   1.02686715,  -2.87193131,    1
2019/09/12 18:08:20.791,   0.92109996,   1.11710000,  -0.99729997,   1.33290792,   0.11239921,   0.03420845,  -0.50798529,   1.05420959,  -2.93023205,    1
2019/09/12 18:08:20.809,  -0.02520000,  -0.25590000,   0.12490000,   0.72570789,  -0.31642818,  -0.28466320,  -0.52308190,   1.08052945,  -2.96931911,    1
2019/09/12 18:08:20.830,   0.38699999,  -0.70050001,   0.77989995,   0.80512041,  -0.69516462,  -0.37751472,  -0.51882792,   1.07364345,  -3.01551008,    1
2019/09/12 18:08:20.849,  -0.04470000,  -1.35689998,   0.44049999,   0.84177232,  -0.90408057,  -0.47158796,  -0.51991946,   1.06985259,  -3.04654527,    1
2019/09/12 18:08:20.870,   1.75559998,  -0.45359999,  -1.65539992,   0.71959925,  -0.77091193,  -0.58887410,  -0.52909648,   1.07128739,  -3.05634046,    1
2019/09/12 18:08:20.891,  -0.07319999,   0.90849996,  -0.88479996,   0.50457466,  -0.56688297,  -0.73303831,  -0.52570903,   1.06648827,  -3.05806637,    1
2019/09/12 18:08:20.910,  -0.38229999,   1.18049991,  -0.06120000,   0.33597589,  -0.20036380,  -0.59864795,  -0.52485204,   1.06674564,  -3.08778572,    1
2019/09/12 18:08:20.930,   1.52230000,  -0.21969999,   0.29459998,   0.15760323,   0.02199115,  -0.54489177,  -0.51763105,   1.06940246,  -3.09156775,    1
2019/09/12 18:08:20.949,  -0.71919996,   0.26319999,   1.04209995,   0.06963864,   0.21135937,  -0.70371675,  -0.50691128,   1.06905532,  -3.10959387,    1
2019/09/12 18:08:20.970,  -1.97009993,   0.10760000,   2.63979983,   0.31520647,   0.47891834,  -0.55222219,  -0.49525079,   1.07764220,  -3.13429141,    1
2019/09/12 18:08:20.993,  -0.57849997,  -1.87229991,   0.96770000,   0.75014251,   0.13439035,  -0.27855456,  -0.47008407,   1.08658421,   3.12778616,    1
2019/09/12 18:08:21.010,  -0.21020000,  -0.53649998,  -0.40680000,   0.84299403,   0.05986479,  -0.31887165,  -0.47211024,   1.09731722,   3.13545752,    1
2019/09/12 18:08:21.029,  -0.06790000,  -0.27759999,  -0.02950000,   0.68416905,   0.09896017,  -0.25656340,  -0.47166345,   1.10818279,   3.12552691,    1
2019/09/12 18:08:21.049,  -1.10689998,   0.24869999,  -0.57169998,   0.63896501,   0.18325958,  -0.12950343,  -0.47316113,   1.11754906,   3.10036516,    1
2019/09/12 18:08:21.070,  -0.83019996,  -0.10850000,  -1.10019994,   0.51557028,   0.29443705,  -0.00610865,  -0.47477978,   1.14112484,   3.08870745,    1
2019/09/12 18:08:21.090,  -0.15200000,  -0.02700000,  -0.40959999,   0.26511550,   0.27244589,   0.10262536,  -0.47897857,   1.15188479,   3.07510066,    1
2019/09/12 18:08:21.109,   0.13859999,  -0.03170000,  -0.38450000,   0.15638150,   0.18814649,   0.15638150,  -0.48407722,   1.16260064,   3.03654361,    1
2019/09/12 18:08:21.130,   0.45069999,  -0.05760000,  -0.32099998,   0.05131268,   0.06597345,   0.15882497,  -0.48823056,   1.16721749,   3.01810503,    1
2019/09/12 18:08:21.149,   0.04420000,  -0.26479998,   2.16050005,  -0.01343904,  -0.05864306,   0.09651671,  -0.48608458,   1.14908350,   3.02107430,    1
2019/09/12 18:08:21.170,  -1.17509997,  -3.37809992,   1.50279999,   0.27977628,  -0.59131753,   0.32375857,  -0.48776731,   1.14734340,   3.00972056,    1
2019/09/12 18:08:21.189,   0.37959999,  -1.94769990,  -0.21010000,   0.40805799,  -0.83566362,   0.72570789,  -0.47994372,   1.13709021,   3.00497055,    1
2019/09/12 18:08:21.210,   0.66420001,   0.19409999,  -0.09559999,   0.23823744,  -0.49113566,   0.68661255,  -0.49660644,   1.12112784,   3.02991152,    1
2019/09/12 18:08:21.230,   0.22520000,   2.74039984,   1.11749995,   0.22479841,  -0.24801129,   0.54367006,  -0.52827138,   1.10029507,   3.03082824,    1
2019/09/12 18:08:21.250,   0.05430000,   1.55339992,   0.85799998,   0.32253686,  -0.24312437,   0.41050145,  -0.54004896,   1.09479678,   3.02700329,    1
2019/09/12 18:08:21.269,   0.08650000,   0.09850000,   0.70359999,   0.45692721,  -0.03298672,   0.31398472,  -0.54990929,   1.08403385,   3.05500698,    1
2019/09/12 18:08:21.290,  -0.38959998,  -0.29670000,   0.29459998,   0.53878313,   0.30176744,   0.29932398,  -0.55977190,   1.08657289,   3.06587434,    1
2019/09/12 18:08:21.310,  -0.57669997,   1.18149996,  -0.30530000,   0.63774329,   0.61941737,   0.42027527,  -0.57684231,   1.10225749,   3.05252051,    1
2019/09/12 18:08:21.330,   0.68759996,   1.07359993,  -1.05809999,   0.68050385,   0.86131996,   0.55222219,  -0.59014380,   1.11981142,   3.05721211,    1
2019/09/12 18:08:21.349,  -0.02420000,   0.33730000,   0.53009999,   0.51312679,   0.97371918,   0.43615779,  -0.60734296,   1.13718641,   3.04445624,    1
2019/09/12 18:08:21.369,  -0.50019997,  -1.15269995,   0.28869998,   0.46425757,   0.92851514,   0.29810223,  -0.61962682,   1.16087818,   3.00867987,    1
2019/09/12 18:08:21.391,   0.20919999,  -1.64899993,  -0.49239999,   0.52656585,   0.75625116,   0.31887165,  -0.61666596,   1.18905509,   2.99043393,    1
2019/09/12 18:08:21.411,   0.00040000,  -0.96209997,   0.25790000,   0.55955255,   0.55833083,   0.30543262,  -0.62653267,   1.20963442,   2.97712159,    1
2019/09/12 18:08:21.430,  -0.48249999,   0.52560002,  -0.31900001,   0.66706485,   0.30054569,   0.48869219,  -0.63815165,   1.23204243,   2.93805099,    1
2019/09/12 18:08:21.449,   0.05380000,   0.43889999,   0.13710000,   0.62552601,   0.28710666,   0.49602258,  -0.65183103,   1.24520445,   2.91317487,    1
2019/09/12 18:08:21.469,   0.51239997,  -0.29929999,  -0.15680000,   0.55833083,   0.23579398,   0.32986721,  -0.66624016,   1.25768030,   2.91479683,    1
2019/09/12 18:08:21.489,   0.43399999,  -1.33449996,   0.18050000,   0.58887410,   0.16249016,   0.32009339,  -0.67597836,   1.26929796,   2.90098405,    1
2019/09/12 18:08:21.510,   0.74629998,  -0.48420000,  -0.16810000,   0.62430429,   0.15882497,   0.21624629,  -0.68675983,   1.27946198,   2.88693786,    1
2019/09/12 18:08:21.529,   0.75529999,  -0.57159996,  -1.50929999,   0.42394048,   0.53023100,   0.04031711,  -0.69449878,   1.29153776,   2.88625956,    1
2019/09/12 18:08:21.550,   0.92769998,  -0.51849997,  -0.54259998,   0.13927728,   0.54367006,  -0.20769417,  -0.70053041,   1.31277668,   2.88867188,    1
2019/09/12 18:08:21.569,   1.37559998,   0.85920000,   0.66139996,  -0.08552113,   0.30543262,  -0.53756142,  -0.69724506,   1.32679844,   2.87298918,    1
2019/09/12 18:08:21.589,  -0.13050000,  -1.28349996,   0.79479998,  -0.03665191,   0.10629055,  -0.81489420,  -0.67442715,   1.32423127,   2.87238407,    1
2019/09/12 18:08:21.610,   0.52020001,  -3.48580003,   0.63999999,   0.34452799,   0.18692476,  -0.99937552,  -0.65848160,   1.32894778,   2.85598016,    1
2019/09/12 18:08:21.629,  -3.39520001,   1.41509998,   3.38039994,   0.78557271,  -0.30543262,  -1.25227368,  -0.63225132,   1.32146108,   2.84118581,    1
2019/09/12 18:08:21.649,  -1.44139993,   3.23389983,  -0.85310000,   0.41294491,  -0.72448617,  -0.52290064,  -0.61181104,   1.33061838,   2.82902694,    1
2019/09/12 18:08:21.668,  -1.61099994,   3.13029981,   2.55009985,   0.96272361,   0.23945917,  -0.16126843,  -0.61250740,   1.30635333,   2.80495405,    1
2019/09/12 18:08:21.689,   1.24029994,   3.62559986,  -8.15139961,   0.98471475,   0.22724187,   0.10140363,  -0.61435157,   1.32480681,   2.77651143,    1
2019/09/12 18:08:21.711,  -1.67489994,   2.28419995,  -1.25419998,   0.09773844,   0.69638640,  -0.15638150,  -0.62897533,   1.35718143,   2.75308871,    1
2019/09/12 18:08:21.729,   0.37539998,   1.21630001,   0.13939999,   0.00244346,   0.14416419,   0.04276057,  -0.62635684,   1.37300825,   2.74121451,    1
2019/09/12 18:08:21.748,   0.26969999,  -0.04560000,  -0.04360000,   0.19547687,  -0.04642576,   0.16004670,  -0.62846321,   1.37567019,   2.72560215,    1
2019/09/12 18:08:21.769,   0.86750001,  -0.12549999,  -0.76379997,   0.18814649,  -0.14416419,   0.08185595,  -0.63238931,   1.37708747,   2.71843433,    1
2019/09/12 18:08:21.789,   1.07149994,  -1.66009998,  -0.49589998,   0.01954769,  -0.07941248,  -0.00610865,  -0.62675220,   1.38084042,   2.72542906,    1
2019/09/12 18:08:21.809,  -0.42080000,   0.32080001,  -0.06470000,  -0.04398230,  -0.06597345,  -0.13316862,  -0.62673992,   1.37953413,   2.73310065,    1
2019/09/12 18:08:21.829,  -0.53090000,  -0.20060000,   0.15590000,   0.11484266,  -0.16493361,   0.04764749,  -0.61950463,   1.37738740,   2.73332858,    1
2019/09/12 18:08:21.848,  -0.26690000,   0.06280000,   0.14320000,   0.16493361,  -0.05742133,   0.07696902,  -0.62091798,   1.37555468,   2.72563744,    1
2019/09/12 18:08:21.869,  -0.26150000,  -0.54219997,   0.54369998,   0.17959438,   0.11117747,   0.12217305,  -0.61683857,   1.37087560,   2.72832942,    1
2019/09/12 18:08:21.889,  -0.91920000,   2.43359995,  -0.56610000,   0.20525073,   0.29810223,   0.07941248,  -0.61997753,   1.37525344,   2.71451354,    1
2019/09/12 18:08:21.908,  -0.49679998,  -0.09860000,  -0.02850000,   0.26878071,   0.16249016,   0.16004670,  -0.61901432,   1.38525844,   2.70989442,    1
2019/09/12 18:08:21.929,   0.67600000,   0.45679998,  -0.87500000,   0.21258110,   0.00000000,   0.17348573,  -0.62317723,   1.39187503,   2.70964050,    1
2019/09/12 18:08:21.948,   0.69360000,  -0.21579999,  -0.36379999,   0.17348573,  -0.11728612,   0.13072516,  -0.63015074,   1.39745986,   2.70518303,    1
2019/09/12 18:08:21.968,   0.81250000,  -1.13339996,  -0.95049995,   0.06475171,  -0.19181168,  -0.00733038,  -0.63334876,   1.39728057,   2.70852709,    1
2019/09/12 18:08:21.989,  -1.68669999,   1.31400001,   1.70269990,  -0.21624629,  -0.24434610,  -0.23823744,  -0.63264537,   1.38153207,   2.70318937,    1
2019/09/12 18:08:22.008,  -0.97069997,   0.62140000,   2.10130000,  -0.22357668,  -0.34452799,  -0.20402899,  -0.62718087,   1.37423563,   2.70055461,    1
2019/09/12 18:08:22.029,   0.67210001,  -1.71569991,  -0.67769998,  -0.10873401,  -0.21258110,  -0.03420845,  -0.61148286,   1.37219906,   2.71228743,    1
2019/09/12 18:08:22.048,   0.04130000,   1.23469996,  -0.36989999,  -0.23335052,   0.11484266,  -0.10751228,  -0.61041319,   1.36654508,   2.70635414,    1
2019/09/12 18:08:22.069,  -0.26269999,   2.90579987,   1.03979993,  -0.25534168,   0.04886922,  -0.19792034,  -0.62352037,   1.35667109,   2.70918274,    1
2019/09/12 18:08:22.089,  -0.73559999,   3.58179998,   1.76739991,  -0.01954769,  -0.08918633,  -0.07330383,  -0.61492354,   1.38094902,   2.71824074,    1
2019/09/12 18:08:22.108,  -0.31250000,   0.41079998,   0.69119996,   0.13561209,  -0.00244346,  -0.00855211,  -0.61413032,   1.37257373,   2.72978497,    1
2019/09/12 18:08:22.129,  -0.07740000,   0.33309999,  -0.75089997,   0.15149458,  -0.02687807,   0.05986479,  -0.61156809,   1.38917053,   2.72557139,    1
2019/09/12 18:08:22.148,  -0.27710000,   0.65819997,  -0.02380000,   0.09896017,  -0.08796459,   0.06597345,  -0.61631143,   1.39124799,   2.74125791,    1
2019/09/12 18:08:22.169,   0.23840000,  -0.33780000,   0.60549998,   0.11972959,  -0.10384709,   0.08307767,  -0.61578619,   1.40033495,   2.73310804,    1
2019/09/12 18:08:22.189,  -0.06970000,   0.47610000,  -0.31939998,   0.15393804,  -0.09773844,   0.07941248,  -0.62073517,   1.40308392,   2.73645568,    1
2019/09/12 18:08:22.208,  -0.27719998,  -0.76139998,   0.55299997,   0.10384709,  -0.10506882,   0.14416419,  -0.62098175,   1.41056573,   2.72974610,    1
2019/09/12 18:08:22.230,  -0.54469997,  -0.42319998,   0.25709999,   0.12217305,  -0.11362094,   0.28710666,  -0.61914170,   1.40804994,   2.73434091,    1
2019/09/12 18:08:22.248,  -0.84899998,  -0.23410000,   0.91520000,   0.08674286,  -0.16126843,   0.43860123,  -0.62375671,   1.41268635,   2.72782803,    1
2019/09/12 18:08:22.269,  -0.08580000,  -2.49109983,  -0.80409998,   0.04031711,  -0.04153883,   0.53756142,  -0.61526173,   1.42073882,   2.72254944,    1
2019/09/12 18:08:22.289,  -0.46730000,   1.21990001,  -0.07040000,   0.21258110,  -0.12950343,   0.76846844,  -0.62464982,   1.42451334,   2.72147274,    1
2019/09/12 18:08:22.308,  -0.25450000,   0.40070000,   0.31479999,   0.46547931,  -0.25411993,   0.97127575,  -0.64159572,   1.42049468,   2.73078394,    1
2019/09/12 18:08:22.329,  -1.03039992,   0.29889998,  -0.44139999,   0.40439278,  -0.17470746,   1.11421824,  -0.66111177,   1.42453444,   2.73332119,    1
2019/09/12 18:08:22.349,   0.94799995,  -0.06830000,  -0.69000000,   0.15515977,  -0.05619960,   1.24127817,  -0.68882871,   1.43133330,   2.73589826,    1
2019/09/12 18:08:22.369,   2.16349983,   1.45879996,   1.29789996,  -0.05131268,   0.13927728,   1.03358400,  -0.71295851,   1.43345380,   2.75063634,    1
2019/09/12 18:08:22.389,   1.87749994,   0.60699999,   0.44630000,   0.08918633,  -0.02687807,   0.79534656,  -0.74661720,   1.42250192,   2.75438285,    1
2019/09/12 18:08:22.409,   1.07219994,   1.01789999,   0.55219996,   0.16982053,  -0.06352998,   0.46792278,  -0.76198184,   1.42427671,   2.75545335,    1
2019/09/12 18:08:22.429,   1.42119992,   0.91529995,   0.11050000,   0.14416419,   0.01221730,   0.23823744,  -0.78377360,   1.41960609,   2.75403500,    1
2019/09/12 18:08:22.450,   1.39429998,  -0.39150000,   0.86280000,   0.08063421,   0.05253441,  -0.00244346,  -0.78843457,   1.42426169,   2.75197673,    1
2019/09/12 18:08:22.469,   1.43999994,   0.32609999,   0.26269999,   0.08307767,  -0.05986479,  -0.27488935,  -0.79824698,   1.41957664,   2.75685692,    1
2019/09/12 18:08:22.489,   1.48079991,  -0.13650000,   0.33570001,   0.07330383,  -0.11850785,  -0.57299161,  -0.79273748,   1.42253208,   2.75591421,    1
2019/09/12 18:08:22.509,   1.42209995,  -0.06390000,   0.05200000,  -0.00488692,  -0.10140363,  -0.89919364,  -0.78929085,   1.41881955,   2.74859500,    1
2019/09/12 18:08:22.530,   0.90910000,  -0.96859998,   0.52770001,  -0.09529497,  -0.01710423,  -1.18507850,  -0.77119136,   1.42083478,   2.74251008,    1
2019/09/12 18:08:22.549,  -0.54030001,  -2.83369994,  -1.07789993,  -0.12705997,   0.16737707,  -1.38299894,  -0.72734612,   1.43949699,   2.73979282,    1
2019/09/12 18:08:22.570,   0.52419996,   0.96149999,  -0.92369998,  -0.38117990,   0.22113322,  -1.47218525,  -0.69931048,   1.44495881,   2.73757029,    1
2019/09/12 18:08:22.589,  -2.73979998,   1.72189999,   1.42309999,  -0.51190507,   0.19303341,  -1.64689267,  -0.66737109,   1.43824482,   2.74304461,    1
2019/09/12 18:08:22.609,  -1.76389992,   1.30110002,  -0.30309999,  -0.39339721,  -0.05253441,  -1.36955988,  -0.63303161,   1.43911815,   2.74396586,    1
2019/09/12 18:08:22.628,   0.49390000,  -0.51870000,   1.43030000,  -0.37018433,  -0.05375614,  -0.68172562,  -0.60401905,   1.41925192,   2.74012971,    1
2019/09/12 18:08:22.649,  -1.65479994,   0.21969999,   0.89440000,  -0.37018433,  -0.01588250,  -0.71104711,  -0.58902180,   1.41633165,   2.75181890,    1
2019/09/12 18:08:22.670,  -0.47399998,   0.18239999,  -0.15840000,  -0.21135937,  -0.11117747,  -0.29321530,  -0.57309937,   1.41506517,   2.74431181,    1
2019/09/12 18:08:22.689,  -0.68689996,  -0.05550000,   0.01100000,  -0.33353242,  -0.10751228,  -0.13194689,  -0.56622064,   1.41247702,   2.73015428,    1
2019/09/12 18:08:22.708,  -0.38929999,  -0.39739999,   0.58459997,  -0.30665433,  -0.04764749,   0.00244346,  -0.55891448,   1.40174055,   2.74106956,    1
2019/09/12 18:08:22.729,  -0.25779998,  -0.35549998,   1.04259992,  -0.22968532,  -0.01832596,   0.08185595,  -0.55738991,   1.39913464,   2.75192285,    1
2019/09/12 18:08:22.749,   0.33149999,   0.33609998,   0.09160000,  -0.16982053,  -0.11606439,   0.10262536,  -0.56151426,   1.39386725,   2.75096917,    1
2019/09/12 18:08:22.770,   0.43079999,   0.34819999,  -0.02690000,  -0.25167647,  -0.09162979,   0.07819075,  -0.56243056,   1.39122856,   2.75320530,    1
2019/09/12 18:08:22.789,   0.98629999,  -1.15499997,  -2.35010004,  -0.46425757,   0.03176499,  -0.03176499,  -0.55920625,   1.41224325,   2.76167274,    1
2019/09/12 18:08:22.808,   0.67140001,   1.18030000,   1.41649997,  -0.81489420,   0.32253686,  -0.21135937,  -0.55665618,   1.40900636,   2.75383830,    1
2019/09/12 18:08:22.829,   1.24829996,  -1.37329996,  -1.67229998,  -0.89308500,  -0.13439035,  -0.28710666,  -0.54528791,   1.42449188,   2.76294899,    1
2019/09/12 18:08:22.848,   0.13270000,   0.72189999,   1.68889999,  -0.88208938,  -0.40194932,  -0.32620203,  -0.53628045,   1.41432023,   2.78214431,    1
2019/09/12 18:08:22.869,   0.65529996,   0.27599999,   1.08480000,  -0.64996064,  -0.75991637,  -0.28466320,  -0.53096592,   1.38441467,   2.80294275,    1
2019/09/12 18:08:22.889,   0.43860000,   0.26960000,   0.73809999,  -0.60231310,  -0.71593404,  -0.35918877,  -0.52238768,   1.36474478,   2.83132720,    1
2019/09/12 18:08:22.908,  -0.36539999,   0.03720000,   1.46990001,  -0.57299161,  -0.65362579,  -0.38851029,  -0.51159412,   1.33236110,   2.85702157,    1
2019/09/12 18:08:22.929,  -0.03240000,  -0.44409999,   2.07399988,  -0.37018433,  -0.58765239,  -0.33108896,  -0.50131178,   1.31427991,   2.87841129,    1
2019/09/12 18:08:22.948,  -0.79359996,  -0.12469999,   1.60630000,  -0.09896017,  -0.34574974,  -0.21502456,  -0.48919985,   1.28791392,   2.88231659,    1
2019/09/12 18:08:22.969,   0.00320000,   0.13090000,   0.80500001,   0.06597345,   0.01832596,  -0.08063421,  -0.48453864,   1.28064203,   2.88486362,    1
2019/09/12 18:08:22.989,  -0.13650000,   0.38830000,   0.11360000,   0.07330383,   0.13072516,  -0.03909538,  -0.48540166,   1.28110862,   2.88325787,    1
2019/09/12 18:08:23.009,   0.07910000,   0.32220000,   0.10250000,   0.01710423,   0.10751228,   0.02321288,  -0.48510382,   1.28456855,   2.87463593,    1
2019/09/12 18:08:23.029,  -0.23510000,   0.19880000,   0.62779999,  -0.04153883,   0.02443461,   0.05986479,  -0.48576105,   1.28155625,   2.87263823,    1
2019/09/12 18:08:23.048,   0.57440001,   0.12210000,   0.78490001,  -0.02565634,   0.02076942,   0.10506882,  -0.48670399,   1.28143358,   2.87333608,    1
2019/09/12 18:08:23.070,   0.79009998,   0.30800000,   0.45729998,   0.03787364,   0.12339478,   0.07452556,  -0.49361673,   1.27386045,   2.87078333,    1
2019/09/12 18:08:23.089,   0.30870000,   0.19550000,   0.07880000,   0.08307767,   0.18570304,  -0.01954769,  -0.49529678,   1.27647877,   2.87251592,    1
2019/09/12 18:08:23.109,   0.05760000,   0.10789999,   0.08950000,   0.07574729,   0.10995574,  -0.06597345,  -0.49637797,   1.28000593,   2.87168908,    1
2019/09/12 18:08:23.129,  -0.07810000,   0.14410000,   0.10470000,   0.03420845,   0.02443461,  -0.05619960,  -0.49557620,   1.28317225,   2.86239457,    1
2019/09/12 18:08:23.148,  -0.02200000,  -0.11369999,   0.17510000,  -0.01710423,  -0.03665191,  -0.03054326,  -0.49362755,   1.28250611,   2.86552954,    1
2019/09/12 18:08:23.170,   0.45919999,  -0.04930000,  -0.08750000,  -0.06108652,  -0.13927728,   0.01832596,  -0.49298170,   1.28167784,   2.87155271,    1
2019/09/12 18:08:23.190,   0.65590000,   0.20009999,  -0.68470001,  -0.14294246,  -0.37507126,   0.03909538,  -0.49819782,   1.28335679,   2.87453032,    1
2019/09/12 18:08:23.209,   0.77099997,   0.36719999,  -0.37680000,  -0.32498032,  -0.80389863,  -0.02809980,  -0.49815995,   1.27423728,   2.90230513,    1
2019/09/12 18:08:23.229,   0.09040000,   0.27019998,   0.11130000,  -0.53878313,  -1.37566853,  -0.14538592,  -0.49803329,   1.25350916,   2.92596292,    1
2019/09/12 18:08:23.249,   1.09609997,  -0.30419999,   1.67499995,  -0.71349061,  -1.80938280,  -0.17348573,  -0.49182373,   1.22125041,   2.95082760,    1
2019/09/12 18:08:23.269,   0.15619999,  -0.28270000,  -1.21789992,  -0.90285879,  -2.33961391,  -0.31520647,  -0.48361918,   1.19111764,   2.97249556,    1
2019/09/12 18:08:23.289,  -0.87570000,   0.34739998,  -7.48909998,  -1.87413454,  -1.91567338,  -0.22113322,  -0.47081688,   1.13770771,   3.00998378,    1
2019/09/12 18:08:23.309,   1.45229995,  -0.37570000,   3.25599980,  -1.81060457,  -2.92115760,  -0.32742378,  -0.44689628,   1.04964459,   3.03830695,    1
2019/09/12 18:08:23.328,  -0.49539998,  -0.99570000,   0.83609998,  -1.60901904,  -2.95536590,  -0.20036380,  -0.42266893,   0.97964299,   3.08802176,    1
2019/09/12 18:08:23.348,  -0.16149999,  -0.78659999,   2.23889995,  -1.53082824,  -2.54975152,   0.08674286,  -0.39044747,   0.89582288,   3.13195467,    1
2019/09/12 18:08:23.369,  -0.14940000,  -0.66189998,   2.00860000,  -1.06290555,  -1.85092163,   0.28221974,  -0.37228492,   0.83564919,  -3.07931519,    1
2019/09/12 18:08:23.389,   0.07780000,  -0.07740000,   2.57459998,  -0.54122663,  -0.95539325,   0.47403142,  -0.35651597,   0.77510291,  -3.01982045,    1
2019/09/12 18:08:23.408,   2.86189985,   0.04130000,   2.86909986,   0.00977384,  -0.18203785,   0.41661009,  -0.35531789,   0.75069743,  -2.96832633,    1
2019/09/12 18:08:23.429,   0.32470000,   0.62029999,   0.05050000,   0.25656340,   0.49480084,   0.04886922,  -0.36713260,   0.74202240,  -2.94136739,    1
2019/09/12 18:08:23.448,  -0.17189999,   0.05030000,  -0.47829998,   0.16004670,   0.68172562,  -0.02932153,  -0.37159529,   0.75299060,  -2.90963030,    1
2019/09/12 18:08:23.468,   0.59929997,  -0.29310000,   1.26209998,   0.23090705,   0.55710912,   0.01221730,  -0.36945477,   0.75464958,  -2.91831350,    1
2019/09/12 18:08:23.489,   0.74009997,   0.46899998,   0.12230000,   0.36407569,   0.88086766,  -0.08185595,  -0.37300926,   0.76696104,  -2.93399668,    1
2019/09/12 18:08:23.509,   0.26100001,   0.62989998,  -0.43759999,   0.25656340,   1.16919601,  -0.24312437,  -0.38450992,   0.78847069,  -2.94562483,    1
2019/09/12 18:08:23.528,  -0.05480000,   0.18750000,  -0.28650001,   0.22968532,   1.10322261,  -0.49235737,  -0.38464239,   0.81479895,  -2.96794796,    1
2019/09/12 18:08:23.549,   0.23040000,  -0.24300000,  -0.95080000,   0.10262536,   0.74159038,  -0.42882740,  -0.38127851,   0.84733623,  -2.99761820,    1
2019/09/12 18:08:23.569,  -0.21969999,  -0.01070000,  -0.18490000,  -0.06230826,   0.40439278,  -0.34574974,  -0.37617385,   0.86505502,  -3.00534749,    1
2019/09/12 18:08:23.589,  -0.21349999,  -0.40059999,  -0.08830000,  -0.11362094,   0.14294246,  -0.30909780,  -0.36617690,   0.87662023,  -3.02998304,    1
2019/09/12 18:08:23.609,  -0.30320001,  -0.04050000,   0.18850000,  -0.14905111,  -0.03665191,  -0.16371189,  -0.35999864,   0.88030457,  -3.04775739,    1
2019/09/12 18:08:23.628,  -0.10370000,  -0.17979999,   0.55379999,  -0.11239921,  -0.12705997,  -0.05619960,  -0.35268676,   0.87591749,  -3.05435705,    1
2019/09/12 18:08:23.649,  -0.36010000,   0.03690000,   0.15580000,  -0.03909538,  -0.08796459,  -0.00244346,  -0.35041642,   0.87299013,  -3.05290937,    1
2019/09/12 18:08:23.669,   0.13110000,   0.00000000,   0.55489999,  -0.01954769,   0.03665191,   0.05619960,  -0.34909180,   0.86594015,  -3.06597853,    1
2019/09/12 18:08:23.689,   0.10210000,   0.12170000,   0.33300000,   0.05497787,   0.14782938,   0.07330383,  -0.34972283,   0.86628246,  -3.04859900,    1
2019/09/12 18:08:23.709,   0.33239999,   0.20160000,   0.17999999,   0.11117747,   0.29688051,   0.06230826,  -0.35386026,   0.86554939,  -3.04679751,    1
2019/09/12 18:08:23.729,   0.06879999,   0.13050000,   0.12100000,   0.14538592,   0.42516220,   0.02199115,  -0.35628751,   0.87180626,  -3.03863382,    1
2019/09/12 18:08:23.749,   0.30309999,   0.13669999,  -0.18069999,   0.15882497,   0.54367006,  -0.02565634,  -0.36099193,   0.88047224,  -3.05967164,    1
2019/09/12 18:08:23.769,   0.09270000,   0.15109999,  -0.13229999,   0.18081611,   0.65118235,  -0.04276057,  -0.36264646,   0.89240688,  -3.06013298,    1
2019/09/12 18:08:23.788,  -0.22100000,   0.03000000,  -0.08140000,   0.21013764,   0.62186080,  -0.06475171,  -0.36411077,   0.90874916,  -3.07733297,    1
2019/09/12 18:08:23.809,   0.04520000,   0.03890000,  -0.23469999,   0.14172074,   0.43982297,  -0.09285152,  -0.36527848,   0.91845626,  -3.08448052,    1
2019/09/12 18:08:23.828,  -0.13159999,   0.05120000,  -0.24749999,   0.08918633,   0.31520647,  -0.07819075,  -0.36608678,   0.93134910,  -3.10228348,    1
2019/09/12 18:08:23.849,  -0.20279999,  -0.11210000,   0.24759999,   0.04031711,   0.20402899,  -0.02199115,  -0.36572868,   0.93614668,  -3.10729241,    1
2019/09/12 18:08:23.868,  -0.02750000,   0.03370000,   0.13609999,   0.02076942,   0.09162979,  -0.00610865,  -0.36584735,   0.93963724,  -3.11540341,    1
2019/09/12 18:08:23.889,  -0.13239999,   0.02320000,   0.36620000,   0.06841691,   0.10018190,   0.00366519,  -0.36593410,   0.94023609,  -3.11270022,    1
2019/09/12 18:08:23.910,   0.00120000,   0.10100000,   0.30930001,   0.09407324,   0.25656340,   0.02809980,  -0.36708307,   0.94018066,  -3.13168693,    1
2019/09/12 18:08:23.929,  -0.02660000,  -0.06010000,   0.63199997,   0.16737707,   0.49968776,   0.04153883,  -0.36863413,   0.94496173,  -3.12805963,    1
2019/09/12 18:08:23.949,   0.05740000,  -0.08790000,   0.11830000,   0.21746802,   0.86009824,   0.05497787,  -0.37062162,   0.95454144,  -3.12050557,    1
2019/09/12 18:08:23.968,  -0.30419999,  -0.03010000,   0.54780000,   0.28832838,   1.07390106,   0.06108652,  -0.37399453,   0.97183770,  -3.13512754,    1
2019/09/12 18:08:23.989,  -0.36730000,   0.03820000,   0.31259999,   0.40439278,   1.11543989,   0.07941248,  -0.37727222,   0.99446064,   3.10779738,    1
2019/09/12 18:08:24.008,  -0.27469999,   0.12370000,  -0.20260000,   0.44470990,   1.10810959,   0.10262536,  -0.38300520,   1.01930916,   3.08972049,    1
2019/09/12 18:08:24.029,  -0.07410000,   0.18730000,  -0.54329997,   0.43127087,   0.98349303,   0.14416419,  -0.39119688,   1.04933119,   3.06090379,    1
2019/09/12 18:08:24.049,   0.00490000,   0.24429999,  -0.65410000,   0.32009339,   0.73426002,   0.16004670,  -0.39795899,   1.07243395,   3.03350425,    1
2019/09/12 18:08:24.069,  -0.10230000,   0.18910000,  -0.34599999,   0.18325958,   0.41905355,   0.17226399,  -0.40522659,   1.09241033,   3.02400708,    1
2019/09/12 18:08:24.089,   0.23879999,  -0.05820000,   0.16839999,   0.09896017,   0.21258110,   0.19914207,  -0.40987810,   1.10307646,   3.02207422,    1
2019/09/12 18:08:24.109,   0.52739996,  -0.23830000,   0.53279996,   0.08552113,   0.05009095,   0.18814649,  -0.41357288,   1.09998715,   3.03817344,    1
2019/09/12 18:08:24.129,   0.15830000,   0.03910000,  -0.14029999,   0.09407324,  -0.01832596,   0.10262536,  -0.41766408,   1.10196984,   3.02373099,    1
2019/09/12 18:08:24.148,   0.16440000,  -0.21079999,   0.12210000,   0.06597345,  -0.04764749,   0.04642576,  -0.41930369,   1.10007381,   3.01930285,    1
2019/09/12 18:08:24.169,   0.08810000,   0.10960000,  -0.61570001,   0.05375614,  -0.12217305,   0.04276057,  -0.42076716,   1.09943962,   3.01219106,    1
2019/09/12 18:08:24.188,   0.27390000,  -0.00070000,  -0.33939999,  -0.01954769,  -0.13805555,   0.02076942,  -0.42327017,   1.09908080,   3.01735425,    1
2019/09/12 18:08:24.210,   0.03540000,  -0.08120000,  -0.41189998,  -0.10384709,  -0.13683382,  -0.01710423,  -0.42349398,   1.09606349,   3.01829290,    1
2019/09/12 18:08:24.228,   0.17889999,   0.11780000,  -0.45130000,  -0.18814649,  -0.27977628,  -0.03054326,  -0.42426577,   1.09585953,   3.03891993,    1
2019/09/12 18:08:24.249,   0.57019997,   0.14739999,  -0.32400000,  -0.27244589,  -0.54489177,  -0.08674286,  -0.42203236,   1.08888137,   3.04323268,    1
2019/09/12 18:08:24.268,   0.09110000,  -0.01900000,  -0.38560000,  -0.37873644,  -0.91874129,  -0.18936822,  -0.41869009,   1.07931244,   3.05503392,    1
2019/09/12 18:08:24.289,  -0.09990000,   0.35609999,  -0.18509999,  -0.50579643,  -1.24860859,  -0.22113322,  -0.41179350,   1.05889904,   3.06001019,    1
2019/09/12 18:08:24.308,   0.20189999,  -0.29699999,   1.35630000,  -0.68783426,  -1.24616504,  -0.19181168,  -0.39928484,   1.01897454,   3.05484128,    1
2019/09/12 18:08:24.329,   0.17510000,  -0.38909999,   1.73549998,  -0.70005155,  -1.12399209,  -0.20036380,  -0.38878104,   0.99025422,   3.06096148,    1
2019/09/12 18:08:24.349,  -0.36280000,  -0.17970000,   1.56359994,  -0.43615779,  -0.83322018,  -0.19058995,  -0.37318525,   0.95435196,   3.08036613,    1
2019/09/12 18:08:24.369,  -0.14720000,  -0.15490000,   1.31159997,  -0.16737707,  -0.26145032,  -0.08552113,  -0.36502829,   0.93701106,   3.09435749,    1
2019/09/12 18:08:24.388,  -0.00580000,   0.38549998,  -1.32099998,   0.08429940,   0.15149458,  -0.03665191,  -0.36707792,   0.94251651,   3.10371423,    1
2019/09/12 18:08:24.409,   0.04200000,  -0.30480000,   0.64879996,   0.05131268,   0.52045721,  -0.06719518,  -0.36750698,   0.94622171,   3.11613655,    1
2019/09/12 18:08:24.428,   0.24309999,   0.05240000,  -0.61989999,   0.12950343,   0.44593161,  -0.12217305,  -0.36919054,   0.96117300,   3.11932182,    1
2019/09/12 18:08:24.449,  -0.00640000,   0.09620000,  -0.64230001,   0.11239921,   0.37384951,  -0.14294246,  -0.36869606,   0.97144800,   3.10346556,    1
2019/09/12 18:08:24.468,  -0.20479999,  -0.11939999,  -0.22409999,   0.01832596,   0.20769417,  -0.08918633,  -0.36652413,   0.98329061,   3.10389543,    1
2019/09/12 18:08:24.488,  -0.16820000,  -0.18650000,  -0.22090000,  -0.04520403,   0.08185595,  -0.02932153,  -0.36527735,   0.98792011,   3.11067915,    1
2019/09/12 18:08:24.508,   0.20930000,  -0.15140000,   0.03070000,  -0.08552113,  -0.09773844,   0.02443461,  -0.36357638,   0.98791373,   3.11424875,    1
2019/09/12 18:08:24.529,   0.07990000,   0.12760000,   0.21589999,  -0.08796459,  -0.17959438,   0.00610865,  -0.36307186,   0.98529875,   3.12092161,    1
2019/09/12 18:08:24.548,   0.37840000,   0.02150000,   0.30469999,  -0.08307767,  -0.22113322,  -0.03665191,  -0.36287835,   0.97633791,   3.11812496,    1
2019/09/12 18:08:24.569,   0.08360000,   0.33919999,   0.05980000,  -0.09651671,  -0.17837265,  -0.09162979,  -0.36137196,   0.97153407,   3.10996866,    1
2019/09/12 18:08:24.588,   0.17129999,   0.04550000,   0.26769999,  -0.13439035,  -0.07819075,  -0.12583824,  -0.35914975,   0.96451592,   3.12151456,    1
2019/09/12 18:08:24.608,  -0.02440000,   0.00940000,   0.23699999,  -0.07819075,  -0.00855211,  -0.13194689,  -0.35559064,   0.96264219,   3.12910485,    1
2019/09/12 18:08:24.629,  -0.23809999,  -0.03140000,   0.14150000,  -0.02443461,   0.05497787,  -0.11972959,  -0.35146034,   0.96273613,   3.12311697,    1
2019/09/12 18:08:24.649,   0.04990000,  -0.07000000,   0.14800000,   0.00855211,   0.12217305,  -0.08307767,  -0.34925413,   0.96417338,   3.12762761,    1
2019/09/12 18:08:24.669,  -0.28349999,   0.08690000,  -0.08050000,   0.03909538,   0.11972959,  -0.05375614,  -0.34817225,   0.96925092,   3.14042568,    1
2019/09/12 18:08:24.688,  -0.11090000,  -0.06620000,  -0.01090000,   0.02565634,   0.11239921,  -0.02199115,  -0.34776017,   0.97208703,   3.13997197,    1
2019/09/12 18:08:24.708,  -0.01650000,   0.00190000,  -0.06570000,   0.01588250,   0.05253441,  -0.00977384,  -0.34780282,   0.97521263,   3.11519122,    1
2019/09/12 18:08:24.728,   0.00840000,   0.10930000,   0.04060000,  -0.01221730,  -0.01466077,  -0.00488692,  -0.34785610,   0.97630155,   3.12456322,    1
2019/09/12 18:08:24.749,   0.08980000,   0.04720000,   0.03260000,  -0.02443461,  -0.07574729,  -0.00366519,  -0.34822571,   0.97514832,   3.12323976,    1
2019/09/12 18:08:24.769,   0.17870000,   0.04010000,   0.10569999,  -0.04031711,  -0.10506882,  -0.01221730,  -0.34792304,   0.97321457,   3.11337161,    1
2019/09/12 18:08:24.788,   0.10680000,  -0.00200000,   0.23459999,  -0.05497787,  -0.12095132,  -0.02565634,  -0.34717453,   0.96838057,   3.10594702,    1
2019/09/12 18:08:24.809,  -0.03020000,   0.02680000,   0.30289999,  -0.04886922,  -0.09651671,  -0.02932153,  -0.34615442,   0.96598941,   3.13028383,    1
2019/09/12 18:08:24.828,  -0.01050000,  -0.01720000,   0.31459999,  -0.03054326,  -0.03420845,  -0.02443461,  -0.34455040,   0.96141589,   3.11485982,    1
2019/09/12 18:08:24.849,  -0.01260000,  -0.04990000,   0.20940000,   0.00733038,   0.00855211,  -0.02687807,  -0.34383422,   0.96064627,   3.13594151,    1
2019/09/12 18:08:24.869,  -0.06920000,  -0.00510000,   0.07180000,   0.02076942,   0.02809980,  -0.02809980,  -0.34322873,   0.96075612,  -3.13775516,    1
2019/09/12 18:08:24.889,  -0.09770000,  -0.03280000,   0.10150000,   0.01466077,   0.04031711,  -0.02076942,  -0.34303367,   0.96084476,  -3.12900949,    1
2019/09/12 18:08:24.909,  -0.27660000,   0.04170000,   0.17710000,   0.01832596,   0.05009095,  -0.00488692,  -0.34239355,   0.96193099,  -3.12638640,    1
2019/09/12 18:08:24.928,  -0.08940000,   0.00110000,   0.17919999,   0.03420845,   0.08307767,   0.02809980,  -0.34253624,   0.96218210,  -3.10684824,    1
2019/09/12 18:08:24.949,  -0.13300000,   0.06170000,   0.12329999,   0.05497787,   0.11850785,   0.05253441,  -0.34341276,   0.96365368,  -3.11699677,    1
2019/09/12 18:08:24.969,  -0.28650001,   0.19509999,   0.26440001,   0.05742133,   0.13072516,   0.05986479,  -0.34491676,   0.96508920,  -3.10391784,    1
2019/09/12 18:08:24.988,  -0.11390000,   0.01920000,   0.45089999,   0.08063421,   0.20036380,   0.10751228,  -0.34591413,   0.96486640,  -3.10321689,    1
2019/09/12 18:08:25.008,  -0.00830000,   0.05360000,   0.22229999,   0.15271631,   0.29443705,   0.13194689,  -0.34859303,   0.96770209,  -3.10360670,    1
2019/09/12 18:08:25.028,  -0.13550000,  -0.02530000,   0.17270000,   0.20280726,   0.42149702,   0.12705997,  -0.35187176,   0.97331536,  -3.12743235,    1
2019/09/12 18:08:25.048,  -0.16370000,   0.28749999,   0.32330000,   0.27488935,   0.54611355,   0.14905111,  -0.35627863,   0.98175561,  -3.12458992,    1
2019/09/12 18:08:25.068,  -0.12899999,   0.10340000,  -0.20260000,   0.36407569,   0.58154368,   0.16126843,  -0.36250737,   0.99616671,   3.12417436,    1
2019/09/12 18:08:25.088,   0.00410000,  -0.06510000,  -0.43230000,   0.38240165,   0.61208695,   0.14660765,  -0.36919114,   1.00937712,   3.10075784,    1
2019/09/12 18:08:25.108,  -0.27660000,  -0.00600000,  -0.43799999,   0.34086281,   0.59864795,   0.13194689,  -0.37566164,   1.02871120,   3.08638620,    1
2019/09/12 18:08:25.128,  -0.42479998,  -0.16599999,   0.20330000,   0.32131511,   0.59742618,   0.24190263,  -0.38143381,   1.04300344,   3.08328509,    1
2019/09/12 18:08:25.149,  -0.44900000,  -0.16390000,   0.22070000,   0.35674530,   0.62552601,   0.28832838,  -0.38663679,   1.05656922,   3.04417706,    1
2019/09/12 18:08:25.169,   0.13869999,   0.08350000,  -4.59739971,  -0.02076942,   0.79412478,   0.31887165,  -0.39510551,   1.07171416,   3.03613162,    1
2019/09/12 18:08:25.188,  -0.66380000,   0.20109999,   1.88409996,  -0.02687807,   0.63041294,   0.48991391,  -0.39840961,   1.07462573,   3.01470828,    1
2019/09/12 18:08:25.209,   0.39080000,  -0.09810000,   1.08560002,   0.38240165,   0.38973203,   0.53756142,  -0.40664461,   1.08713746,   2.99716520,    1
2019/09/12 18:08:25.228,  -0.31770000,   0.19260000,  -0.09790000,   0.54855698,   0.48258352,   0.49113566,  -0.42025456,   1.09806263,   2.98509502,    1
2019/09/12 18:08:25.248,   0.84899998,   0.27910000,   0.41470000,   0.55222219,   0.54611355,   0.45570546,  -0.43375498,   1.11269224,   2.97487712,    1
2019/09/12 18:08:25.268,   0.89120001,   0.38110000,   0.49519998,   0.74281216,   0.49480084,   0.33964106,  -0.45117450,   1.11762321,   2.96102977,    1
2019/09/12 18:08:25.288,   0.03620000,   0.14360000,  -0.67640001,   0.81855941,   0.54855698,   0.20280726,  -0.46379003,   1.13275850,   2.95275450,    1
2019/09/12 18:08:25.308,  -0.28500000,   0.29479998,  -0.36159998,   0.69272119,   0.65851271,   0.15149458,  -0.47576553,   1.15496898,   2.93612790,    1
2019/09/12 18:08:25.328,   0.17760000,   0.24239999,  -0.86129999,   0.55955255,   0.54000485,   0.15393804,  -0.48411283,   1.17421138,   2.91562796,    1
2019/09/12 18:08:25.348,   0.00280000,  -0.09760000,  -1.00529993,   0.44226643,   0.47403142,   0.14538592,  -0.49174541,   1.20007694,   2.90121126,    1
2019/09/12 18:08:25.369,  -0.02100000,   0.04780000,  -0.23130000,   0.30421090,   0.33719760,   0.15638150,  -0.49767315,   1.21349251,   2.87410235,    1
2019/09/12 18:08:25.388,  -0.03470000,   0.02000000,  -0.42659998,   0.25900686,   0.16982053,   0.20647246,  -0.50323111,   1.22716784,   2.84895301,    1
2019/09/12 18:08:25.409,   0.06310000,   0.14839999,  -0.47299999,   0.17715092,   0.06597345,   0.21135937,  -0.50889444,   1.23251355,   2.83527851,    1
2019/09/12 18:08:25.428,  -0.01810000,   0.15400000,   0.95209998,   0.16737707,  -0.04764749,   0.17348573,  -0.51400644,   1.22575808,   2.82246637,    1
2019/09/12 18:08:25.449,  -0.22399999,   0.53819996,   0.30359998,   0.31398472,  -0.33108896,   0.20280726,  -0.51844126,   1.22591102,   2.82601404,    1
2019/09/12 18:08:25.469,   0.26710001,   0.16740000,  -0.59410000,   0.32131511,  -0.28955013,   0.19303341,  -0.52754736,   1.22706985,   2.83632159,    1
2019/09/12 18:08:25.489,  -0.32729998,   0.93239999,   0.22530000,   0.23701571,  -0.09529497,   0.16615534,  -0.53338909,   1.22406507,   2.85185957,    1
2019/09/12 18:08:25.508,   1.42379999,   0.34320000,  -2.05289984,   0.29443705,  -0.02565634,   0.20769417,  -0.55115134,   1.24236500,   2.86211967,    1
2019/09/12 18:08:25.528,   0.84209996,   1.21659994,  -2.45829988,   0.11972959,   0.54489177,   0.04276057,  -0.55701566,   1.24447572,   2.86139655,    1
2019/09/12 18:08:25.548,  -0.61019999,  -0.70359999,  -0.02950000,  -0.45692721,   0.74159038,  -0.16371189,  -0.55086446,   1.25906718,   2.86206961,    1
2019/09/12 18:08:25.568,  -1.07620001,  -0.55689996,   0.69879997,  -0.59864795,   0.38484511,  -0.20280726,  -0.54499006,   1.26921046,   2.86687613,    1
2019/09/12 18:08:25.588,  -0.51879996,  -0.68399996,   0.54039997,  -0.56199604,   0.25167647,  -0.00244346,  -0.52968717,   1.26696050,   2.85671520,    1
2019/09/12 18:08:25.608,   0.23909999,  -0.68509996,   1.60429990,  -0.48380527,   0.11850785,   0.12828170,  -0.52630955,   1.26572418,   2.85731268,    1
2019/09/12 18:08:25.628,  -0.51830000,  -0.51050001,   1.35439992,  -0.22479841,  -0.05009095,   0.16371189,  -0.51839101,   1.25070143,   2.87601852,    1
2019/09/12 18:08:25.648,   0.52200001,  -0.04450000,   0.57929999,   0.07452556,  -0.04031711,   0.18081611,  -0.52010858,   1.24664521,   2.87351298,    1
2019/09/12 18:08:25.668,  -0.30120000,   0.93449998,   0.80820000,   0.20402899,  -0.01588250,   0.15393804,  -0.52844727,   1.23926997,   2.86796117,    1
2019/09/12 18:08:25.689,  -0.62140000,   0.35940000,   0.97289997,   0.42149702,   0.08185595,   0.13439035,  -0.53272337,   1.24062312,   2.88148952,    1
2019/09/12 18:08:25.708,   0.26470000,  -0.54930001,   0.01310000,   0.58398718,   0.05009095,   0.15638150,  -0.53466946,   1.24534678,   2.86485839,    1
2019/09/12 18:08:25.729,   0.23189999,   0.09090000,  -0.80320001,   0.65729100,   0.08918633,   0.14782938,  -0.54138941,   1.25237203,   2.84764934,    1
2019/09/12 18:08:25.748,   0.36479998,  -0.10590000,  -1.12749994,   0.29321530,   0.12950343,   0.06230826,  -0.55092502,   1.27274346,   2.85855985,    1
2019/09/12 18:08:25.768,   1.17479992,  -0.55350000,   0.02740000,   0.20402899,   0.00488692,   0.01832596,  -0.55286384,   1.28325319,   2.84720016,    1
2019/09/12 18:08:25.789,   0.27230000,  -0.22469999,  -0.56500000,   0.15515977,  -0.04153883,  -0.07941248,  -0.55461806,   1.29106486,   2.83969688,    1
2019/09/12 18:08:25.809,   0.17350000,  -0.24149999,   0.18869999,   0.13316862,  -0.08063421,  -0.10018190,  -0.55308330,   1.29609680,   2.86007667,    1
2019/09/12 18:08:25.829,   0.43339998,  -0.22530000,  -0.14180000,   0.13561209,  -0.04642576,  -0.16493361,  -0.55231225,   1.29659355,   2.86840773,    1
2019/09/12 18:08:25.848,  -0.70289999,   0.32769999,  -0.99379998,   0.03543019,  -0.01343904,  -0.20402899,  -0.54947537,   1.29969072,   2.85306334,    1
2019/09/12 18:08:25.869,  -0.70969999,   0.39039999,   0.13930000,  -0.16004670,  -0.00610865,  -0.07330383,  -0.54546177,   1.30105114,   2.85590363,    1
2019/09/12 18:08:25.888,  -0.15650000,  -0.06740000,   0.51059997,  -0.22113322,  -0.01832596,   0.04886922,  -0.54273683,   1.30133164,   2.85239077,    1
2019/09/12 18:08:25.909,  -0.80489999,   2.89419985,   1.87419999,  -0.34941491,   0.09040806,  -0.01954769,  -0.55335641,   1.28479970,   2.83307719,    1
2019/09/12 18:08:25.928,   0.98609996,  -0.35619998,   0.51139998,  -0.20525073,  -0.12461651,   0.06597345,  -0.55035913,   1.28538084,   2.83270478,    1
2019/09/12 18:08:25.948,   0.13959999,  -0.14489999,   0.52209997,  -0.13194689,  -0.10629055,  -0.05131268,  -0.54971594,   1.27448499,   2.84427381,    1
2019/09/12 18:08:25.968,  -1.05799997,   3.04139996,   0.94180000,  -0.13927728,   0.09162979,  -0.16493361,  -0.54743171,   1.27342570,   2.83999944,    1
2019/09/12 18:08:25.988,   0.16830000,  -0.98569995,  -0.04490000,  -0.06352998,   0.04276057,  -0.02321288,  -0.53760910,   1.27446473,   2.83995438,    1
2019/09/12 18:08:26.009,   0.80799997,  -2.56349993,   0.55100000,   0.01710423,   0.00244346,  -0.08185595,  -0.53630841,   1.27688062,   2.83763123,    1
2019/09/12 18:08:26.028,  -0.40309998,   1.40369999,  -0.33919999,   0.18203785,  -0.05131268,  -0.14538592,  -0.54153395,   1.28111649,   2.84287691,    1
2019/09/12 18:08:26.048,   1.22309995,  -2.16770005,  -2.52250004,   0.00000000,  -0.06352998,  -0.13683382,  -0.53940195,   1.28439951,   2.84230733,    1
2019/09/12 18:08:26.068,  -2.13629985,   2.41680002,  -0.58199996,  -0.29810223,   0.00366519,  -0.16249016,  -0.54235321,   1.29230690,   2.84442639,    1
2019/09/12 18:08:26.089,  -0.09450000,  -0.75699997,   0.81290001,  -0.35674530,   0.04153883,  -0.02076942,  -0.53722984,   1.29104722,   2.85768795,    1
2019/09/12 18:08:26.109,   2.23149991,  -3.83769989,   0.85839999,  -0.28344148,   0.10995574,   0.00366519,  -0.51174951,   1.26704359,   2.87110353,    1
2019/09/12 18:08:26.129,   0.64230001,  -1.29189992,  -2.69120002,  -0.21258110,   0.16493361,  -0.10995574,  -0.50990134,   1.26740539,   2.86915016,    1
2019/09/12 18:08:26.148,  -0.07840000,   1.26699996,   0.06390000,  -0.27611110,   0.24434610,  -0.00855211,  -0.51343662,   1.26793444,   2.86954284,    1
2019/09/12 18:08:26.169,  -0.43339998,  -0.51010001,   0.19550000,  -0.17592919,   0.04031711,   0.07208209,  -0.51138592,   1.27122283,   2.88215160,    1
2019/09/12 18:08:26.188,  -1.28320003,   0.57849997,   1.74210000,  -0.18081611,   0.30909780,  -0.06475171,  -0.51020563,   1.25895298,   2.87583518,    1
2019/09/12 18:08:26.209,  -2.49219990,   3.09119987,   1.00080001,  -0.29688051,   0.76480329,  -0.17104226,  -0.50763816,   1.26476574,   2.86502624,    1
2019/09/12 18:08:26.229,   1.41159999,  -0.67339998,   0.69760001,  -0.21991149,   0.65362579,   0.07086037,  -0.50290585,   1.26448166,   2.86260962,    1
2019/09/12 18:08:26.249,  -0.28140000,  -0.72950000,   0.09270000,  -0.05864306,   0.61330867,   0.05497787,  -0.50258005,   1.27697444,   2.86173940,    1
2019/09/12 18:08:26.268,   0.20739999,  -0.03170000,   0.56779999,  -0.03543019,   0.45081854,   0.00122173,  -0.50355464,   1.28214967,   2.85596323,    1
2019/09/12 18:08:26.289,  -0.24470000,  -0.17379999,  -0.24669999,   0.10140363,   0.14660765,   0.01832596,  -0.50296354,   1.29296029,   2.84899640,    1
2019/09/12 18:08:26.308,   0.13730000,  -0.10270000,  -0.21789999,   0.12950343,  -0.05375614,   0.07819075,  -0.50382310,   1.29874253,   2.84666061,    1
2019/09/12 18:08:26.329,   0.21280000,  -0.03930000,   0.34160000,   0.10384709,  -0.06719518,   0.10140363,  -0.50559765,   1.30094695,   2.83328009,    1
2019/09/12 18:08:26.348,  -0.06090000,   0.22389999,   0.05370000,   0.14049901,   0.12095132,   0.03543019,  -0.50923324,   1.29995322,   2.81893110,    1
2019/09/12 18:08:26.368,   0.59670001,  -0.64609998,   1.04859996,   0.32253686,   0.20158553,  -0.00244346,  -0.51007950,   1.30634999,   2.82415795,    1
2019/09/12 18:08:26.388,   0.15079999,   0.46699998,  -0.66850001,   0.29199359,   0.24923302,   0.02321288,  -0.51526141,   1.31983757,   2.82805276,    1
2019/09/12 18:08:26.409,   0.01700000,   0.51319999,  -0.35069999,   0.12583824,   0.17348573,   0.03543019,  -0.51676124,   1.32966936,   2.82968545,    1
2019/09/12 18:08:26.428,   0.59840000,  -0.22219999,  -0.81860000,   0.04031711,  -0.06597345,  -0.00733038,  -0.51908445,   1.34163833,   2.82155204,    1
2019/09/12 18:08:26.449,  -0.07500000,   0.65340000,  -0.00850000,  -0.04764749,  -0.18814649,  -0.00733038,  -0.51874381,   1.34240711,   2.82375884,    1
2019/09/12 18:08:26.468,   1.22239995,  -1.66619992,   0.33199999,  -0.08063421,   0.07330383,  -0.09040806,  -0.51125944,   1.33117735,   2.81635475,    1
2019/09/12 18:08:26.488,   0.78819996,  -1.70340002,  -0.26749998,  -0.25289822,   0.16126843,  -0.31764993,  -0.50870836,   1.33373821,   2.82327986,    1
2019/09/12 18:08:26.509,   1.34739995,  -1.42119992,   0.11110000,  -0.28832838,   0.17104226,  -0.20769417,  -0.49630597,   1.33019960,   2.81985736,    1
2019/09/12 18:08:26.529,  -1.06309998,  -0.83219999,  -0.46159998,  -0.11117747,   0.41905355,  -0.18814649,  -0.49050352,   1.33283269,   2.83567715,    1
2019/09/12 18:08:26.548,  -0.26170000,   0.37930000,   0.67890000,  -0.00366519,   0.25534168,  -0.09773844,  -0.48758528,   1.33475077,   2.83657384,    1
2019/09/12 18:08:26.568,   0.35900000,   1.15320003,  -0.33769998,   0.09040806,   0.03665191,  -0.06475171,  -0.48540357,   1.34127283,   2.83730459,    1
2019/09/12 18:08:26.588,  -0.45609999,   0.38789999,  -0.20140000,   0.02199115,  -0.00366519,  -0.04153883,  -0.48545009,   1.34583473,   2.82404637,    1
2019/09/12 18:08:26.608,  -0.14440000,  -0.14250000,   0.69369996,   0.01343904,  -0.07452556,   0.02199115,  -0.48441088,   1.34746170,   2.83297229,    1
2019/09/12 18:08:26.629,   0.04100000,   0.42829999,   0.16869999,   0.14172074,  -0.10751228,   0.02199115,  -0.48758474,   1.34410739,   2.82539535,    1
2019/09/12 18:08:26.648,   1.60749996,  -1.64759994,   2.26230001,   0.21746802,  -0.15882497,  -0.05131268,  -0.48837894,   1.34457994,   2.82092762,    1
2019/09/12 18:08:26.668,   1.01150000,  -0.14289999,  -1.06959999,   0.25045475,  -0.12095132,   0.02809980,  -0.49131361,   1.35270941,   2.83060312,    1
2019/09/12 18:08:26.688,  -0.14090000,  -0.19489999,   0.66459996,   0.21380283,  -0.10384709,   0.05986479,  -0.49279606,   1.35352850,   2.81949759,    1
2019/09/12 18:08:26.708,   0.20199999,   0.67809999,  -0.16589999,   0.32009339,  -0.21624629,   0.04642576,  -0.49964812,   1.35424304,   2.79940104,    1
2019/09/12 18:08:26.729,   3.22339988,  -3.09459996,   2.35739994,   0.28832838,  -0.26022860,   0.00122173,  -0.50163591,   1.35437274,   2.80168343,    1
2019/09/12 18:08:26.748,  -1.35899997,   1.74539995,  -2.64279985,   0.41538835,  -0.55710912,  -0.18692476,  -0.50790387,   1.37497771,   2.80392385,    1
2019/09/12 18:08:26.769,  -0.24110000,  -0.00180000,   0.76800001,   0.29810223,  -0.34941491,   0.00000000,  -0.50580257,   1.36910975,   2.79148555,    1
2019/09/12 18:08:26.788,   0.26870000,  -0.07510000,   0.25189999,   0.19181168,  -0.14416419,  -0.01954769,  -0.50750697,   1.36227727,   2.80500007,    1
2019/09/12 18:08:26.808,   0.44189999,   0.08780000,  -0.15570000,   0.21013764,  -0.10018190,  -0.07452556,  -0.50793827,   1.36154675,   2.81709552,    1
2019/09/12 18:08:26.828,   0.13890000,   0.03730000,  -0.09800000,   0.16004670,  -0.09529497,  -0.11606439,  -0.50810486,   1.36257577,   2.81550288,    1
2019/09/12 18:08:26.849,  -0.22759999,  -0.21509999,   0.57409996,   0.11850785,  -0.08185595,  -0.12950343,  -0.50666684,   1.36220932,   2.80853868,    1
2019/09/12 18:08:26.868,  -0.04470000,   0.07400000,   0.08510000,   0.14172074,  -0.04153883,  -0.08429940,  -0.50495321,   1.36138582,   2.80397820,    1
2019/09/12 18:08:26.888,   0.13699999,   0.05250000,   0.05940000,   0.12950343,   0.05619960,  -0.07452556,  -0.50402236,   1.36194706,   2.79158330,    1
2019/09/12 18:08:26.909,  -0.20829999,  -0.12350000,  -0.05810000,   0.10873401,   0.05497787,  -0.10506882,  -0.50167197,   1.36576200,   2.79083133,    1
2019/09/12 18:08:26.928,   0.07750000,  -0.06120000,   0.35279998,   0.07330383,   0.07941248,  -0.09529497,  -0.50011307,   1.36817062,   2.78147984,    1
2019/09/12 18:08:26.949,   0.53649998,   0.04090000,   0.62549996,   0.07819075,   0.07452556,  -0.05864306,  -0.50077569,   1.36318040,   2.78109002,    1
2019/09/12 18:08:26.968,   0.12300000,   0.08710000,   0.58700001,   0.21746802,   0.01954769,  -0.13561209,  -0.49995324,   1.36570764,   2.78655648,    1
2019/09/12 18:08:26.988,   0.18380000,  -0.04830000,   0.51639998,   0.24556783,   0.01588250,  -0.18448131,  -0.49860114,   1.36327672,   2.78618455,    1
2019/09/12 18:08:27.008,   0.91589999,  -0.31180000,  -0.24589999,   0.16737707,   0.12339478,  -0.25411993,  -0.49615696,   1.36620784,   2.77559447,    1
2019/09/12 18:08:27.028,   0.11470000,   0.44349998,  -0.01480000,   0.11117747,   0.16126843,  -0.27977628,  -0.49497333,   1.37051690,   2.78052592,    1
2019/09/12 18:08:27.048,  -0.73820001,   0.75979996,   0.10700000,   0.12461651,   0.06841691,  -0.21624629,  -0.49009860,   1.37504411,   2.77942014,    1
2019/09/12 18:08:27.068,  -0.85990000,   0.57139999,  -0.26989999,   0.10506882,   0.04398230,  -0.05986479,  -0.48691306,   1.38183212,   2.77714348,    1
2019/09/12 18:08:27.089,  -0.21730000,   0.28230000,   0.04680000,   0.05009095,   0.04153883,   0.05375614,  -0.48631680,   1.38341761,   2.78361559,    1
2019/09/12 18:08:27.108,   0.87959999,  -1.40539992,  -0.16560000,   0.03298672,   0.03909538,   0.03787364,  -0.48074809,   1.38550627,   2.78927255,    1
2019/09/12 18:08:27.128,   0.52200001,  -3.88639998,   1.38730001,  -0.15760323,   0.25534168,  -0.39461893,  -0.48187858,   1.38581598,   2.77429509,    1
2019/09/12 18:08:27.149,  -0.06320000,   0.28160000,  -0.38589999,  -0.34819320,   0.36896262,  -0.64140850,  -0.47501913,   1.39360332,   2.77310920,    1
2019/09/12 18:08:27.168,   2.18059993,   0.37160000,  -0.69799995,  -0.55100042,   0.38484511,  -0.67439520,  -0.46125135,   1.39848697,   2.76718736,    1
2019/09/12 18:08:27.188,  -2.59669995,   2.53849983,  11.15450001,  -0.61208695,   0.24923302,  -0.91263264,  -0.45117387,   1.34975660,   2.74742103,    1
2019/09/12 18:08:27.208,   4.57209969, -10.81190014,  -7.47739983,  -0.04886922,   0.11484266,  -1.19363070,  -0.43039477,   1.35201657,   2.73986697,    1
2019/09/12 18:08:27.228,  -4.08039999,   5.43549967,   0.63029999,  -0.14660765,   0.18570304,  -1.12521374,  -0.42066732,   1.35611629,   2.75033164,    1
2019/09/12 18:08:27.249,  -1.83669996,   2.22619987,  -0.23519999,  -0.05497787,  -0.02321288,  -0.10018190,  -0.39784521,   1.36134160,   2.75411439,    1
2019/09/12 18:08:27.268,  -1.13590002,   2.73049998,  -0.06900000,  -0.04886922,  -0.11972959,   0.10751228,  -0.40725559,   1.36154366,   2.74214506,    1
2019/09/12 18:08:27.288,  -0.19419999,   1.01020002,  -0.32999998,  -0.09407324,  -0.14294246,  -0.02199115,  -0.40882409,   1.35958040,   2.73556566,    1
2019/09/12 18:08:27.309,  -0.02750000,  -0.36260000,  -0.19810000,  -0.14416419,  -0.11117747,  -0.11606439,  -0.40552229,   1.35815060,   2.74678040,    1
2019/09/12 18:08:27.328,  -0.04930000,  -1.04999995,   0.00510000,  -0.12705997,  -0.03176499,  -0.10018190,  -0.40232983,   1.35590410,   2.74989295,    1
2019/09/12 18:08:27.349,  -0.05940000,  -0.13599999,   0.05530000,  -0.09285152,   0.05864306,  -0.06597345,  -0.39883047,   1.35410893,   2.74789953,    1
2019/09/12 18:08:27.369,  -0.96139997,   0.28360000,  -0.10040000,  -0.05742133,   0.12339478,  -0.10262536,  -0.39686048,   1.35553682,   2.74670768,    1
2019/09/12 18:08:27.389,   0.12340000,  -0.04000000,  -0.25130001,  -0.04398230,   0.11606439,  -0.15393804,  -0.39467278,   1.35978246,   2.74537730,    1
2019/09/12 18:08:27.408,  -0.86799997,   0.21679999,  -0.36370000,  -0.03543019,   0.09896017,  -0.16859880,  -0.39118561,   1.36292171,   2.75042677,    1
2019/09/12 18:08:27.428,   0.01490000,  -0.33059999,  -0.32259998,  -0.04764749,   0.06963864,  -0.14416419,  -0.38554600,   1.36807191,   2.75058818,    1
2019/09/12 18:08:27.448,  -0.44069999,   0.15930000,  -0.19010000,  -0.04276057,   0.09285152,  -0.11850785,  -0.38231149,   1.37001240,   2.75545907,    1
2019/09/12 18:08:27.469,   2.78810000,  -2.31739998,  -0.38310000,  -0.02932153,   0.06841691,  -0.11239921,  -0.36774787,   1.37042820,   2.75660896,    1
2019/09/12 18:08:27.488,  -0.83809996,   0.97079998,  -0.41669998,  -0.01832596,   0.00977384,  -0.31520647,  -0.36524731,   1.37236023,   2.76187420,    1
2019/09/12 18:08:27.509,  -0.11009999,   0.52869999,  -0.04880000,  -0.03787364,  -0.06108652,  -0.05864306,  -0.36210155,   1.37316978,   2.74382544,    1
2019/09/12 18:08:27.528,  -0.05680000,   0.24879999,   0.23909999,   0.03176499,  -0.09896017,   0.06352998,  -0.36052182,   1.37258863,   2.74589324,    1
2019/09/12 18:08:27.549,  -0.03230000,   0.30930001,  -1.19169998,   0.04642576,  -0.03054326,   0.02932153,  -0.36357495,   1.38125145,   2.75438881,    1
2019/09/12 18:08:27.570,   0.02470000,   0.01950000,  -0.43449998,  -0.06352998,   0.00977384,   0.03298672,  -0.36417758,   1.38143945,   2.77182269,    1
2019/09/12 18:08:27.589,  -0.14669999,   0.00670000,   0.88909996,   0.09162979,  -0.12095132,   0.03543019,  -0.36451292,   1.37369823,   2.78145933,    1
2019/09/12 18:08:27.608,  -0.37950000,   0.09450000,  -0.23529999,   0.15882497,  -0.12339478,   0.02076942,  -0.36563995,   1.37177324,   2.78821874,    1
2019/09/12 18:08:27.629,   0.03820000,   0.01470000,  -0.17420000,   0.09162979,  -0.07330383,   0.02809980,  -0.36686254,   1.37193537,   2.77477717,    1
2019/09/12 18:08:27.648,   0.28799999,  -0.11189999,  -0.59399998,   0.05986479,  -0.04276057,  -0.02321288,  -0.36785722,   1.37096608,   2.76348066,    1
2019/09/12 18:08:27.668,   0.08590000,  -0.12410000,  -0.11840000,   0.01099557,  -0.04276057,  -0.05986479,  -0.36704850,   1.37157536,   2.75238681,    1
2019/09/12 18:08:27.688,   0.01120000,  -0.16190000,  -0.42589998,   0.02076942,  -0.07696902,  -0.07941248,  -0.36580175,   1.37128282,   2.74546123,    1
2019/09/12 18:08:27.708,  -0.69629997,   0.29209998,  -0.25229999,  -0.02687807,  -0.04520403,  -0.08918633,  -0.36439386,   1.37326169,   2.74883056,    1
2019/09/12 18:08:27.729,   0.29969999,  -0.66079998,  -0.46489999,  -0.08429940,   0.03420845,  -0.05375614,  -0.36243144,   1.37266505,   2.75299478,    1
2019/09/12 18:08:27.748,   0.00710000,   0.07240000,   0.08710000,  -0.16737707,   0.08552113,  -0.11362094,  -0.36159065,   1.37195110,   2.74984741,    1
2019/09/12 18:08:27.769,  -0.87320000,   0.89419997,   0.50639999,  -0.15149458,   0.09896017,  -0.13439035,  -0.35857475,   1.37302279,   2.75323629,    1
2019/09/12 18:08:27.790,  -0.26170000,   0.26580000,   0.38049999,  -0.05619960,   0.05009095,  -0.07330383,  -0.35650563,   1.37115788,   2.74352026,    1
2019/09/12 18:08:27.808,   0.05090000,   0.36129999,   0.11680000,   0.01954769,   0.03054326,  -0.07819075,  -0.35463235,   1.37252009,   2.75309420,    1
2019/09/12 18:08:27.829,   0.02250000,  -0.05380000,  -0.21259999,   0.03909538,   0.07574729,  -0.10873401,  -0.35284975,   1.37527835,   2.75590539,    1
2019/09/12 18:08:27.848,  -1.06509995,   1.31809998,   0.10980000,   0.00733038,   0.09773844,  -0.13194689,  -0.35079855,   1.37749588,   2.75833273,    1
2019/09/12 18:08:27.868,  -0.02910000,  -0.08440000,  -0.10800000,   0.00488692,   0.03054326,  -0.07330383,  -0.34760600,   1.38076258,   2.75946569,    1
2019/09/12 18:08:27.888,  -0.31720001,   0.12469999,  -0.10120000,   0.00610865,  -0.00855211,  -0.06597345,  -0.34617686,   1.38161135,   2.75336623,    1
2019/09/12 18:08:27.909,   0.07080000,  -0.09500000,  -0.02310000,   0.00855211,  -0.01832596,  -0.05742133,  -0.34447524,   1.38169551,   2.74997425,    1
2019/09/12 18:08:27.928,  -2.20019984,  -1.10399997,   0.60460001,  -0.08063421,   0.04153883,  -0.10506882,  -0.34328207,   1.38180029,   2.74202394,    1
2019/09/12 18:08:27.949,  -0.09990000,   0.12870000,  -0.31799999,   0.02321288,  -0.04886922,  -0.03176499,  -0.34145218,   1.38509738,   2.74910712,    1
2019/09/12 18:08:27.968,  -0.02980000,  -0.04170000,   0.36449999,   0.01710423,  -0.00488692,   0.00244346,  -0.34080344,   1.38470006,   2.74552655,    1
2019/09/12 18:08:27.989,  -1.21209991,   0.48490000,  -0.18509999,   0.03543019,  -0.03909538,   0.02076942,  -0.34110776,   1.38789320,   2.74797082,    1
2019/09/12 18:08:28.010,  -1.32169998,   0.41229999,  -0.43189999,   0.10506882,  -0.07086037,   0.03420845,  -0.34153923,   1.38768947,   2.72754407,    1
2019/09/12 18:08:28.028,  -0.46829998,   0.18650000,  -0.26420000,   0.10629055,  -0.09040806,   0.04276057,  -0.34263483,   1.38990569,   2.74418736,    1
2019/09/12 18:08:28.048,   0.10510000,   0.19569999,   0.24869999,   0.09773844,  -0.09407324,   0.02443461,  -0.34377882,   1.38907313,   2.75061440,    1
2019/09/12 18:08:28.068,   0.13949999,   0.11920000,  -0.27199998,   0.11606439,  -0.12828170,   0.00977384,  -0.34570849,   1.38992596,   2.76044536,    1
2019/09/12 18:08:28.088,   1.57559991,   0.28919998,  -0.60289997,   0.10506882,  -0.12950343,  -0.03176499,  -0.34641492,   1.38798237,   2.75968623,    1
2019/09/12 18:08:28.109,   2.18969989,  -1.32439995,  -0.06650000,   0.03665191,  -0.06963864,  -0.25656340,  -0.34164771,   1.38250649,   2.76498294,    1
2019/09/12 18:08:28.128,   3.00689983,  -0.85920000,  -1.30579996,   0.02321288,  -0.11362094,  -0.61453044,  -0.33690032,   1.38134062,   2.75246358,    1
2019/09/12 18:08:28.148,  -1.65469992,  -0.46859998,   0.22389999,  -0.09529497,   0.02687807,  -1.15453529,  -0.31896532,   1.38142502,   2.75628924,    1
2019/09/12 18:08:28.168,  -4.35220003,   1.87149990,   2.00549984,  -0.17837265,   0.07941248,  -1.20829141,  -0.29605794,   1.38245618,   2.76059461,    1
2019/09/12 18:08:28.188,  -1.74939990,   0.56909996,  -0.78679997,   0.05497787,   0.23579398,  -0.64996064,  -0.27168021,   1.39260066,   2.77813077,    1
2019/09/12 18:08:28.209,  -0.84789997,   0.34079999,   0.22209999,  -0.12950343,   0.03787364,  -0.10873401,  -0.25943103,   1.39732563,   2.77064657,    1
2019/09/12 18:08:28.229,   0.42530000,   0.30969998,  -0.68860000,  -0.18570304,  -0.28221974,  -0.38117990,  -0.25961262,   1.40274405,   2.77394533,    1
2019/09/12 18:08:28.248,   0.39449999,   0.52149999,   0.92240000,  -0.17104226,  -0.40317106,  -0.51068336,  -0.25168541,   1.39600098,   2.76280499,    1
2019/09/12 18:08:28.269,   3.30789995,  -0.87229997,   0.58450001,  -0.03787364,  -0.00244346,  -0.68050385,  -0.24142228,   1.37165010,   2.72991729,    1
2019/09/12 18:08:28.288,   0.34849998,  -0.77309996,  -0.49289998,   0.08674286,   0.37262779,  -0.94317591,  -0.22781308,   1.37243390,   2.71223998,    1
2019/09/12 18:08:28.308,  -0.68379998,  -0.38949999,  -0.18679999,   0.11728612,   0.44470990,  -0.80878556,  -0.20599936,   1.38411665,   2.72728705,    1
2019/09/12 18:08:28.328,  -1.35319996,   0.13069999,   0.05860000,   0.11362094,   0.40927970,  -0.62552601,  -0.19050324,   1.39415205,   2.72026014,    1
2019/09/12 18:08:28.349,  -0.64940000,  -0.72759998,  -0.65929997,   0.09162979,   0.27244589,  -0.38851029,  -0.17258722,   1.41008914,   2.71767306,    1
2019/09/12 18:08:28.368,  -1.26549995,   0.74610001,   0.06420000,   0.04886922,   0.14782938,  -0.15760323,  -0.16512814,   1.41629362,   2.72741818,    1
2019/09/12 18:08:28.389,  -0.61589998,   0.57739997,   0.22819999,   0.02076942,   0.11972959,  -0.11117747,  -0.16532475,   1.41806686,   2.72958374,    1
2019/09/12 18:08:28.408,   1.86210001,  -0.51050001,   0.05510000,   0.01710423,   0.05253441,  -0.11117747,  -0.16323753,   1.42055523,   2.72277737,    1
2019/09/12 18:08:28.429,  -1.62809992,   0.27260000,   0.60949999,   0.05742133,   0.10995574,  -0.16615534,  -0.16132499,   1.41907775,   2.72476578,    1
2019/09/12 18:08:28.448,   0.67490000,  -0.48209998,  -0.26969999,   0.06963864,  -0.01343904,  -0.06352998,  -0.15822648,   1.42157710,   2.74125743,    1
2019/09/12 18:08:28.468,  -0.03460000,   0.58819997,  -0.13509999,   0.08429940,   0.08185595,  -0.18081611,  -0.16113892,   1.42225885,   2.72827792,    1
2019/09/12 18:08:28.488,  -0.11539999,   0.22679999,   0.50879997,  -0.01221730,   0.24312437,  -0.29565877,  -0.15791695,   1.42405844,   2.73455906,    1
2019/09/12 18:08:28.510,   0.84869999,  -1.85379994,  -1.30680001,  -0.12461651,   0.31398472,  -0.43860123,  -0.13769947,   1.44182789,   2.75429344,    1
2019/09/12 18:08:28.528,  -2.33049989,   1.55439997,   0.59660000,  -0.27366763,   0.33108896,  -0.36407569,  -0.12899600,   1.44721293,   2.75018001,    1
2019/09/12 18:08:28.549,   0.67609996,   0.80109996,   0.09310000,  -0.21258110,   0.02687807,   0.13072516,  -0.12778226,   1.45098233,   2.73880529,    1
2019/09/12 18:08:28.569,   0.42819998,   0.55509996,   0.21030000,  -0.13683382,  -0.07086037,   0.14049901,  -0.12991121,   1.45089686,   2.73923802,    1
2019/09/12 18:08:28.588,   0.48760000,   0.38220000,  -0.11840000,  -0.04520403,  -0.14905111,   0.02199115,  -0.13564102,   1.44922924,   2.74440169,    1
2019/09/12 18:08:28.609,   0.39519998,   0.15320000,  -0.16769999,  -0.04031711,  -0.19792034,  -0.05253441,  -0.13599139,   1.44612217,   2.74153161,    1
2019/09/12 18:08:28.628,   0.09490000,   0.10610000,   0.11550000,  -0.11239921,  -0.21991149,  -0.10506882,  -0.13579564,   1.44087553,   2.74689317,    1
2019/09/12 18:08:28.648,  -0.25110000,   0.20719999,   0.83550000,  -0.12095132,  -0.16249016,  -0.13316862,  -0.13344930,   1.43621528,   2.75011253,    1
2019/09/12 18:08:28.668,   0.29620001,  -0.43079999,  -0.44659999,  -0.03909538,  -0.19181168,  -0.07819075,  -0.12740238,   1.43659186,   2.74325204,    1
2019/09/12 18:08:28.689,  -0.20670000,   0.66420001,   1.03729999,  -0.01466077,  -0.15638150,  -0.00122173,  -0.12570545,   1.43284571,   2.72492743,    1
2019/09/12 18:08:28.708,   0.48220000,  -0.53609997,  -0.23130000,   0.00000000,  -0.13927728,   0.03787364,  -0.12205707,   1.43149853,   2.71612549,    1
2019/09/12 18:08:28.729,   0.08670000,  -0.31479999,   0.34750000,   0.01588250,   0.13805555,   0.10506882,  -0.12249899,   1.42946744,   2.70916128,    1
2019/09/12 18:08:28.748,   0.33129999,  -0.26789999,  -0.52520001,   0.11484266,  -0.00122173,   0.31276301,  -0.12271529,   1.43665123,   2.71100283,    1
2019/09/12 18:08:28.768,   1.03129995,   0.79079998,   0.35839999,   0.00000000,  -0.06108652,   0.39584067,  -0.12885086,   1.43767810,   2.73046923,    1
2019/09/12 18:08:28.789,  -0.86149997,   1.45739996,   0.65469998,  -0.13927728,   0.21258110,   0.06108652,  -0.14517823,   1.43143523,   2.73325562,    1
2019/09/12 18:08:28.808,   0.26069999,   0.83230001,  -0.43410000,  -0.01221730,   0.09529497,   0.03543019,  -0.14592966,   1.43549931,   2.73726320,    1
2019/09/12 18:08:28.829,  -0.08880000,   0.44299999,   0.28520000,  -0.00610865,  -0.03543019,   0.06719518,  -0.14971347,   1.43475628,   2.73005843,    1
2019/09/12 18:08:28.848,  -0.72839999,  -1.05879998,  -0.38479999,  -0.05009095,   0.04398230,  -0.05619960,  -0.15088950,   1.43439853,   2.73779893,    1
2019/09/12 18:08:28.868,   1.86829996,  -1.29329991,  -1.71009994,  -0.48747045,   0.46670103,  -0.44593161,  -0.13957350,   1.45193219,   2.73371744,    1
2019/09/12 18:08:28.888,  -1.81610000,   1.03009999,   1.32149994,  -0.27977628,   0.17837265,  -0.23212878,  -0.12945782,   1.46043885,   2.72884536,    1
2019/09/12 18:08:28.908,   0.77370000,   0.16139999,  -0.46259999,  -0.07208209,  -0.00855211,  -0.20891590,  -0.12598315,   1.46669090,   2.74920177,    1
2019/09/12 18:08:28.929,  -0.34869999,   0.48830000,   0.72359997,  -0.16493361,   0.19547687,  -0.30176744,  -0.12157524,   1.46671677,   2.76149249,    1
2019/09/12 18:08:28.948,  -0.07590000,   0.04530000,   0.28380001,  -0.15882497,   0.21502456,  -0.27977628,  -0.11565987,   1.46796715,   2.76341724,    1
2019/09/12 18:08:28.968,  -0.32060000,  -0.31979999,   0.44889998,  -0.07941248,   0.09529497,  -0.10384709,  -0.10981065,   1.47195351,   2.77746677,    1
2019/09/12 18:08:28.988,  -0.13970000,  -0.33579999,   0.27919999,  -0.00610865,   0.00733038,   0.06475171,  -0.10536945,   1.47168171,   2.77839065,    1
2019/09/12 18:08:29.008,   2.60459995,  -0.74129999,  -2.12380004,  -0.12583824,  -0.23945917,   0.38362336,  -0.10674281,   1.47162664,   2.77952933,    1
2019/09/12 18:08:29.030,   0.78590000,   1.43049991,   0.63099998,  -0.44837508,   0.34574974,   0.77702057,  -0.12557203,   1.45905626,   2.76557851,    1
2019/09/12 18:08:29.049,   1.35239995,   0.36089998,   0.96429998,  -0.27366763,   0.49968776,   0.43493605,  -0.13989222,   1.46497452,   2.76475143,    1
2019/09/12 18:08:29.068,   1.48149991,  -0.10520000,  -0.68030000,  -0.07941248,   0.15393804,  -0.15515977,  -0.14860003,   1.47949052,   2.77299833,    1
2019/09/12 18:08:29.088,   1.03779995,  -0.39710000,  -1.34689999,  -0.19669861,   0.21135937,   0.04031711,  -0.14530057,   1.48262954,   2.78650546,    1
2019/09/12 18:08:29.108,   2.18140006,   0.12799999,  -0.17809999,  -0.30176744,   0.65118235,   0.59376103,  -0.14982760,   1.48583007,   2.77976322,    1
2019/09/12 18:08:29.129,  -1.14080000,   0.79469997,   1.11729991,  -0.35185838,   0.77213365,   0.88941979,  -0.16107720,   1.49809551,   2.79306793,    1
2019/09/12 18:08:29.149,  -2.65380001,   1.25339997,   1.40049994,  -0.12339478,   0.74647731,   0.37384951,  -0.18281247,   1.50387013,   2.78163433,    1
2019/09/12 18:08:29.168,  -1.41289997,   0.76299995,   0.31619999,  -0.14049901,   0.62796944,  -0.17470746,  -0.19001411,   1.51863408,   2.79310942,    1
2019/09/12 18:08:29.188,  -0.59319997,  -0.23119999,   0.11189999,  -0.12705997,   0.47647488,  -0.21991149,  -0.18425505,   1.53016508,   2.78331232,    1
2019/09/12 18:08:29.208,   0.95769995,  -0.90289998,   0.18310000,  -0.13927728,   0.34574974,   0.04398230,  -0.17963068,   1.53969932,   2.77308893,    1
2019/09/12 18:08:29.228,  -0.50209999,  -0.81379998,  -0.20529999,  -0.10751228,   0.14294246,   0.31520647,  -0.17441870,   1.54832566,   2.76884031,    1
2019/09/12 18:08:29.249,   0.65549999,  -0.61479998,  -0.97439998,  -0.07696902,   0.09285152,   0.47647488,  -0.18026194,   1.55197215,   2.77277374,    1
2019/09/12 18:08:29.268,  -0.81049997,  -0.44349998,   1.78419995,  -0.19914207,   0.34941491,   1.50272846,  -0.18696238,   1.53992701,   2.77011204,    1
2019/09/12 18:08:29.289,   0.68360001,   1.19869995,  -0.94669998,  -0.15760323,   0.24068090,   1.61390591,  -0.21635520,   1.54751170,   2.78299260,    1
2019/09/12 18:08:29.308,   1.51559997,   0.81999999,   1.50510001,   0.02199115,  -0.20158553,   0.55222219,  -0.25852472,   1.53581285,   2.77757430,    1
2019/09/12 18:08:29.328,  -0.85600001,   1.22019994,  -0.62860000,   0.07941248,  -0.07819075,   0.57665676,  -0.26918241,   1.53300214,   2.76422167,    1
2019/09/12 18:08:29.348,  -0.19250000,   0.66259998,   0.20619999,   0.01221730,   0.03420845,   0.28221974,  -0.28476518,   1.52981460,   2.77263165,    1
2019/09/12 18:08:29.368,   0.02880000,   0.57370001,  -0.09130000,  -0.04642576,   0.16615534,  -0.09162979,  -0.29009363,   1.53149652,   2.77016521,    1
2019/09/12 18:08:29.389,  -0.19000000,  -0.01370000,   0.16939999,  -0.08796459,   0.21135937,  -0.25045475,  -0.28789055,   1.53320384,   2.77198243,    1
2019/09/12 18:08:29.408,  -0.07580000,  -0.36579999,  -0.05250000,  -0.09407324,   0.18325958,  -0.26022860,  -0.28253511,   1.53785276,   2.77601933,    1
2019/09/12 18:08:29.428,   0.09540000,   0.00460000,  -0.00380000,  -0.06963864,   0.19547687,  -0.22235495,  -0.27751714,   1.54100835,   2.78689647,    1
2019/09/12 18:08:29.449,  -0.16569999,   0.13620000,   0.00450000,  -0.00244346,   0.25534168,  -0.27244589,  -0.27287698,   1.54509389,   2.77476645,    1
2019/09/12 18:08:29.469,  -0.50000000,  -0.08419999,   0.02270000,  -0.02565634,   0.30665433,  -0.36774087,  -0.26606417,   1.55021679,   2.77467561,    1
2019/09/12 18:08:29.488,  -0.42100000,  -0.24849999,  -0.01250000,   0.00610865,   0.37018433,  -0.41783181,  -0.25849229,   1.55693626,   2.76948094,    1
2019/09/12 18:08:29.508,  -0.71289998,   0.11780000,   0.04490000,   0.05375614,   0.42394048,  -0.46547931,  -0.24977884,   1.56412423,   2.77439833,    1
2019/09/12 18:08:29.528,  -0.17060000,   0.05010000,  -0.09299999,   0.12095132,   0.39339721,  -0.52412236,  -0.24032082,   1.57340002,   2.77878070,    1
2019/09/12 18:08:29.548,   0.48029998,  -0.12469999,   0.02460000,   0.20769417,   0.23090705,  -0.47036624,  -0.22976138,   1.58167744,   2.78011608,    1
2019/09/12 18:08:29.569,   0.67670000,  -0.60319996,   0.13890000,   0.23701571,   0.08307767,  -0.31276301,  -0.22023097,   1.58751643,   2.75194883,    1
2019/09/12 18:08:29.588,   0.14340000,  -0.25450000,   0.08080000,   0.18692476,   0.12950343,  -0.17226399,  -0.21243088,   1.58962655,   2.76151752,    1
2019/09/12 18:08:29.608,   1.31719995,   0.14360000,  -0.27320001,   0.00366519,  -0.12461651,   0.03054326,  -0.20870887,   1.59362555,   2.76820207,    1
2019/09/12 18:08:29.629,   0.64499998,   0.15089999,  -0.58980000,  -0.00977384,  -0.07819075,   0.02443461,  -0.21103379,   1.59644294,   2.76700950,    1
2019/09/12 18:08:29.648,   0.11499999,   0.60899997,   2.01889992,   0.08918633,   0.12217305,  -0.06475171,  -0.21133670,   1.59543276,   2.76523495,    1
2019/09/12 18:08:29.669,   0.26539999,   0.58590001,   0.58319998,   0.49968776,   0.57910025,  -0.25167647,  -0.21478996,   1.59296644,   2.78782463,    1
2019/09/12 18:08:29.689,  -0.63980001,  -1.02329993,  -1.81239998,   1.06657076,   0.77213365,  -0.46914449,  -0.20974162,   1.60606337,   2.78070664,    1
2019/09/12 18:08:29.709,  -0.07170000,  -0.21499999,  -1.55069995,   0.52534407,   0.39828414,  -0.27488935,  -0.19694529,   1.63862407,   2.81127119,    1
2019/09/12 18:08:29.728,  -0.09630000,  -1.10309994,  -0.08890000,  -0.09285152,  -0.12828170,   0.06230826,  -0.19134343,   1.64684880,   2.83285213,    1
2019/09/12 18:08:29.748,  -0.26609999,  -0.49419999,   0.12969999,  -0.11850785,  -0.22479841,   0.22235495,  -0.18919410,   1.64300704,   2.82523322,    1
2019/09/12 18:08:29.768,   0.15009999,   0.65349996,   0.45209998,  -0.11606439,  -0.09162979,   0.24434610,  -0.19429518,   1.63676584,   2.81295919,    1
2019/09/12 18:08:29.788,   0.22059999,   0.61309999,  -0.25810000,  -0.06108652,  -0.02199115,   0.11972959,  -0.20367739,   1.63644195,   2.81596613,    1
2019/09/12 18:08:29.808,  -0.12709999,  -0.09110000,  -0.05030000,  -0.03543019,  -0.14782938,   0.05986479,  -0.20658410,   1.63462353,   2.80371356,    1
2019/09/12 18:08:29.828,  -0.70959997,  -0.54809999,  -0.60369998,  -0.04886922,  -0.15393804,   0.05375614,  -0.20308451,   1.63619411,   2.78292394,    1
2019/09/12 18:08:29.848,   0.16280000,   0.07740000,   0.03960000,  -0.08185595,  -0.12461651,   0.11362094,  -0.20432314,   1.63270450,   2.77435875,    1
2019/09/12 18:08:29.869,   0.47739998,   0.41009998,   0.39139998,  -0.03420845,   0.00000000,   0.07574729,  -0.21058588,   1.62645626,   2.75406837,    1
2019/09/12 18:08:29.889,   1.87659991,   0.44409999,   0.27219999,   0.00733038,  -0.00855211,   0.03054326,  -0.21217161,   1.62630820,   2.73508239,    1
2019/09/12 18:08:29.908,   0.77969998,  -0.15650000,   0.91829997,   0.02687807,  -0.19058995,  -0.00122173,  -0.21346398,   1.61793375,   2.73618078,    1
2019/09/12 18:08:29.928,   0.00660000,   0.38299999,  -0.17590000,   0.09773844,  -0.05497787,  -0.09040806,  -0.21344425,   1.61422586,   2.73684192,    1
2019/09/12 18:08:29.948,  -1.25109994,  -0.80409998,  -0.53490001,   0.06841691,  -0.14049901,  -0.22113322,  -0.20421843,   1.61763299,   2.73729348,    1
2019/09/12 18:08:29.969,  -0.23089999,  -0.06250000,   0.85060000,   0.04398230,  -0.24190263,  -0.17715092,  -0.19946241,   1.61583793,   2.72566295,    1
2019/09/12 18:08:29.989,   0.72609997,   0.11580000,   0.48009998,   0.06719518,  -0.21135937,  -0.13927728,  -0.19823499,   1.60678089,   2.74489260,    1
2019/09/12 18:08:30.009,   0.38959998,   0.33059999,   0.26049998,   0.04764749,  -0.24801129,  -0.05986479,  -0.19524030,   1.60326469,   2.74021411,    1
2019/09/12 18:08:30.029,  -0.12610000,   0.02690000,   0.23490000,   0.11239921,  -0.15515977,  -0.07574729,  -0.19419046,   1.59645832,   2.71982694,    1
2019/09/12 18:08:30.048,  -0.53399998,  -0.21930000,  -0.55610001,   0.07208209,  -0.10018190,  -0.07941248,  -0.19224681,   1.59473395,   2.72275877,    1
2019/09/12 18:08:30.069,  -0.47979999,  -0.08270000,  -0.43129998,   0.08552113,   0.06352998,  -0.01099557,  -0.18923654,   1.59648573,   2.73276901,    1
2019/09/12 18:08:30.090,   0.45199999,   0.19579999,   0.09800000,   0.03787364,  -0.12217305,  -0.00733038,  -0.18882006,   1.59852946,   2.72427964,    1
2019/09/12 18:08:30.109,   0.45279998,  -0.09590000,  -0.06450000,   0.03176499,  -0.16982053,  -0.01343904,  -0.18856056,   1.59689772,   2.71791458,    1
2019/09/12 18:08:30.128,   0.19960000,   0.15510000,   0.09840000,  -0.01099557,  -0.24556783,  -0.00610865,  -0.18794826,   1.59445465,   2.73278379,    1
2019/09/12 18:08:30.149,  -0.48659998,   0.17070000,  -0.03550000,  -0.00122173,  -0.15882497,  -0.04886922,  -0.18836382,   1.58966982,   2.72422838,    1
2019/09/12 18:08:30.168,  -0.22899999,  -0.11180000,   0.06750000,   0.01099557,  -0.01954769,  -0.10751228,  -0.18714859,   1.58711195,   2.73090482,    1
2019/09/12 18:08:30.189,   0.56739998,   0.02590000,   0.09510000,  -0.00610865,  -0.01710423,  -0.13805555,  -0.18607026,   1.58588409,   2.75006962,    1
2019/09/12 18:08:30.208,   0.14070000,   0.37509999,   0.22749999,  -0.02321288,  -0.07819075,  -0.14905111,  -0.18339372,   1.58536828,   2.73728991,    1
2019/09/12 18:08:30.228,  -0.14729999,  -0.02570000,   0.16890000,   0.00488692,  -0.02687807,  -0.16737707,  -0.18018934,   1.58231211,   2.72847462,    1
2019/09/12 18:08:30.248,  -0.75919998,  -0.16910000,   0.29470000,   0.00855211,  -0.00488692,  -0.14538592,  -0.17672929,   1.58212888,   2.74830675,    1
2019/09/12 18:08:30.268,  -0.21139999,  -0.26920000,   0.10110000,   0.00610865,   0.06475171,  -0.07452556,  -0.17182018,   1.58135307,   2.75284648,    1
2019/09/12 18:08:30.288,  -0.44459999,  -0.09890000,   0.18060000,  -0.00244346,   0.03787364,  -0.03298672,  -0.17042334,   1.58248878,   2.72365427,    1
2019/09/12 18:08:30.309,   0.47929999,  -0.18300000,  -0.13319999,   0.01832596,   0.05497787,   0.00610865,  -0.16896571,   1.58452404,   2.75753617,    1
2019/09/12 18:08:30.328,   0.14530000,   0.08920000,   0.16970000,   0.03665191,   0.07086037,   0.02809980,  -0.16920333,   1.58544528,   2.76098537,    1
2019/09/12 18:08:30.348,   0.00790000,  -0.08800000,   0.16200000,   0.03909538,   0.09773844,   0.03420845,  -0.16928662,   1.58566284,   2.74626231,    1
2019/09/12 18:08:30.369,  -0.17989999,   0.32670000,  -0.21059999,   0.02321288,   0.05375614,  -0.00244346,  -0.17000058,   1.58770323,   2.73681116,    1
2019/09/12 18:08:30.389,  -0.19890000,  -0.03100000,  -0.08500000,  -0.01343904,  -0.00366519,  -0.03909538,  -0.16948220,   1.58955371,   2.75061011,    1
2019/09/12 18:08:30.409,   0.18460000,  -0.01440000,   0.25610000,  -0.00366519,  -0.01832596,  -0.01832596,  -0.16876869,   1.58934450,   2.73571873,    1
2019/09/12 18:08:30.428,   0.17240000,   0.24429999,   0.09600000,  -0.02199115,  -0.05131268,  -0.01099557,  -0.17041387,   1.58798373,   2.72809076,    1
2019/09/12 18:08:30.448,  -0.12109999,   0.23779999,   0.16740000,  -0.03298672,  -0.08185595,  -0.02932153,  -0.17007215,   1.58725834,   2.72651029,    1
2019/09/12 18:08:30.468,  -0.21859999,   0.09100000,   0.23909999,  -0.00122173,  -0.00122173,  -0.07941248,  -0.17004088,   1.58347106,   2.73192930,    1
2019/09/12 18:08:30.489,   0.01940000,  -0.10879999,  -0.00410000,   0.04153883,   0.07941248,  -0.11606439,  -0.16838583,   1.58366406,   2.75020385,    1
2019/09/12 18:08:30.509,  -0.11250000,  -0.14549999,   0.13020000,   0.02687807,   0.02443461,  -0.09162979,  -0.16504656,   1.58438051,   2.75972772,    1
2019/09/12 18:08:30.528,  -0.29620001,   0.14489999,  -0.00510000,   0.01954769,   0.01343904,  -0.04764749,  -0.16338144,   1.58456278,   2.76837134,    1
2019/09/12 18:08:30.548,   0.03930000,  -0.07750000,   0.12539999,   0.01832596,   0.03176499,  -0.06841691,  -0.16204853,   1.58387768,   2.77762842,    1
2019/09/12 18:08:30.568,   0.00170000,  -0.19509999,   0.03590000,   0.04398230,   0.09162979,  -0.09651671,  -0.16101612,   1.58373094,   2.77656054,    1
2019/09/12 18:08:30.588,   0.28959998,  -0.11510000,   0.29569998,   0.03909538,   0.05864306,  -0.10384709,  -0.15881602,   1.58320999,   2.76672411,    1
2019/09/12 18:08:30.608,   0.36089998,  -0.47990000,  -0.07960000,   0.06963864,   0.08918633,  -0.08796459,  -0.15697716,   1.58393931,   2.75188732,    1
2019/09/12 18:08:30.628,  -0.44799998,  -0.19960000,  -0.20089999,   0.04886922,   0.01343904,   0.03420845,  -0.15331335,   1.58764684,   2.75206971,    1
2019/09/12 18:08:30.649,  -0.77279997,   0.16550000,   0.22260000,  -0.02321288,  -0.05864306,   0.17837265,  -0.15409741,   1.58784497,   2.73615313,    1
2019/09/12 18:08:30.668,   0.79920000,   0.01150000,   0.21159999,  -0.02443461,  -0.02932153,   0.14905111,  -0.15889843,   1.58467674,   2.73388338,    1
2019/09/12 18:08:30.688,   0.41229999,   0.55219996,   0.06030000,  -0.03787364,  -0.04276057,   0.05253441,  -0.16182141,   1.58423889,   2.72535157,    1
2019/09/12 18:08:30.708,   0.02560000,   0.23189999,   0.00030000,  -0.02321288,  -0.01099557,   0.02809980,  -0.16453961,   1.58309746,   2.71579313,    1
2019/09/12 18:08:30.728,  -0.45530000,  -0.41839999,   0.50330001,  -0.05253441,  -0.03665191,   0.06352998,  -0.16488096,   1.58340836,   2.73209882,    1
2019/09/12 18:08:30.749,   0.50220001,   0.03080000,   0.12109999,  -0.03909538,   0.00000000,   0.13805555,  -0.16711441,   1.58138609,   2.73690915,    1
2019/09/12 18:08:30.768,   0.03690000,   0.59310001,   0.12159999,  -0.03543019,  -0.02809980,   0.13072516,  -0.16983344,   1.58144259,   2.73028064,    1
2019/09/12 18:08:30.788,   0.11640000,   0.34480000,   0.38560000,   0.00855211,   0.06108652,  -0.00122173,  -0.17527942,   1.57726884,   2.72066736,    1
2019/09/12 18:08:30.808,   0.76379997,   0.02280000,   0.53869998,   0.01710423,   0.13805555,  -0.13927728,  -0.17511311,   1.57892561,   2.73708963,    1
2019/09/12 18:08:30.829,   0.59119999,  -0.07160000,   0.15089999,   0.11117747,   0.18936822,  -0.21746802,  -0.17269015,   1.58041275,   2.72642303,    1
2019/09/12 18:08:30.848,  -0.00010000,   0.21529999,   0.00500000,   0.19547687,   0.26511550,  -0.28588492,  -0.16832340,   1.58462584,   2.73167729,    1
2019/09/12 18:08:30.868,  -0.87329996,   0.03100000,   0.14860000,   0.05375614,   0.07819075,  -0.36285394,  -0.16197579,   1.58935440,   2.73762941,    1
2019/09/12 18:08:30.889,   0.59840000,   0.02110000,  -0.41589999,   0.03543019,   0.14294246,  -0.29077184,  -0.15483117,   1.59079921,   2.75399065,    1
2019/09/12 18:08:30.909,  -0.56079996,   0.13059999,   0.31320000,  -0.01221730,   0.04398230,  -0.30787608,  -0.14955895,   1.59114397,   2.75419545,    1
2019/09/12 18:08:30.929,  -0.20919999,  -0.00870000,   0.09030000,  -0.00244346,   0.09529497,  -0.29199359,  -0.14366278,   1.59139419,   2.75378895,    1
2019/09/12 18:08:30.948,  -0.46390000,  -0.21990000,   0.12889999,   0.00488692,   0.14905111,  -0.32986721,  -0.13605282,   1.59233987,   2.75758505,    1
2019/09/12 18:08:30.968,   0.23009999,  -0.05120000,   0.05360000,   0.01343904,   0.13927728,  -0.28466320,  -0.12973589,   1.59467721,   2.76865172,    1
2019/09/12 18:08:30.988,   0.47770000,  -0.75999999,  -0.02850000,   0.04398230,   0.16371189,  -0.24923302,  -0.11884305,   1.59832263,   2.76456666,    1
2019/09/12 18:08:31.008,  -0.61600000,  -0.83249998,  -0.24839999,   0.06352998,   0.22602014,   0.00733038,  -0.11415128,   1.60092592,   2.76797080,    1
2019/09/12 18:08:31.029,  -0.59719998,  -0.08720000,  -0.20799999,   0.02321288,   0.10751228,   0.21013764,  -0.11314435,   1.60714483,   2.77553749,    1
2019/09/12 18:08:31.048,   0.53469998,   0.74140000,  -0.35259998,  -0.01343904,   0.00488692,   0.28344148,  -0.11771344,   1.60843861,   2.75972366,    1
2019/09/12 18:08:31.069,   0.28729999,   0.59410000,   0.00670000,  -0.07208209,  -0.09162979,   0.15760323,  -0.12789552,   1.60812581,   2.75983572,    1
2019/09/12 18:08:31.088,   0.78399998,  -0.02690000,   0.15959999,  -0.08429940,  -0.05375614,   0.00366519,  -0.13128848,   1.60569251,   2.75725746,    1
2019/09/12 18:08:31.108,   0.18519999,   0.06380000,  -0.04540000,  -0.07208209,  -0.05986479,  -0.00244346,  -0.13204001,   1.60475957,   2.75529885,    1
2019/09/12 18:08:31.128,  -0.08899999,   0.27829999,  -0.07099999,  -0.08918633,  -0.08429940,   0.07208209,  -0.13217312,   1.60312343,   2.75207520,    1
2019/09/12 18:08:31.148,   0.20009999,   0.36510000,  -0.08480000,  -0.07696902,  -0.03787364,   0.06108652,  -0.13639197,   1.60170019,   2.75295067,    1
2019/09/12 18:08:31.169,  -0.06610000,   0.16569999,  -0.03670000,  -0.04886922,  -0.01466077,  -0.04886922,  -0.13775080,   1.60059369,   2.74086332,    1
2019/09/12 18:08:31.188,   0.14909999,   0.16260000,  -0.05680000,  -0.02687807,   0.02076942,  -0.08918633,  -0.13807985,   1.60054350,   2.73004222,    1
2019/09/12 18:08:31.208,  -0.24069999,   0.13149999,   0.08650000,  -0.03909538,   0.04031711,  -0.07086037,  -0.13620673,   1.60117424,   2.73216009,    1
2019/09/12 18:08:31.228,  -0.07120000,  -0.13930000,  -0.04920000,  -0.00366519,   0.09285152,  -0.06597345,  -0.13378893,   1.60233796,   2.72981715,    1
2019/09/12 18:08:31.249,  -0.20729999,  -0.24319999,   0.04020000,  -0.00488692,   0.09407324,  -0.02565634,  -0.13236868,   1.60449326,   2.73741341,    1
2019/09/12 18:08:31.268,   0.35810000,   0.21640000,  -0.37259999,  -0.03298672,   0.12095132,   0.02199115,  -0.13351007,   1.60949159,   2.73202586,    1
2019/09/12 18:08:31.289,   0.69989997,   0.39940000,   0.09429999,  -0.07086037,  -0.07452556,  -0.11606439,  -0.13386002,   1.61215019,   2.74068475,    1
2019/09/12 18:08:31.308,   0.10830000,  -0.34189999,   0.09240000,  -0.09773844,  -0.06963864,  -0.12095132,  -0.12937587,   1.60990286,   2.73822522,    1
2019/09/12 18:08:31.330,   1.09249997,  -0.22999999,   0.14839999,  -0.07696902,  -0.12705997,  -0.08552113,  -0.12692837,   1.60857356,   2.73271132,    1
2019/09/12 18:08:31.348,   0.11189999,   0.28610000,  -0.15169999,   0.05742133,  -0.00855211,  -0.16126843,  -0.12728870,   1.60693979,   2.72359228,    1
2019/09/12 18:08:31.369,   0.06700000,  -0.00400000,   0.00030000,   0.06597345,   0.05253441,  -0.18692476,  -0.12382464,   1.60743797,   2.72044253,    1
2019/09/12 18:08:31.388,   0.18009999,  -0.21830000,  -0.11420000,   0.03909538,   0.08063421,  -0.19425514,  -0.11859635,   1.60976815,   2.73163843,    1
2019/09/12 18:08:31.408,   0.55649996,   0.10470000,   0.14019999,   0.03787364,   0.00000000,  -0.15638150,  -0.11458208,   1.61174285,   2.73566937,    1
2019/09/12 18:08:31.428,  -0.15590000,  -0.20919999,  -0.61409998,   0.03909538,  -0.04886922,  -0.06352998,  -0.10953292,   1.61686385,   2.75581908,    1
2019/09/12 18:08:31.448,  -0.85039997,  -0.32499999,  -0.33989999,   0.04398230,   0.07330383,  -0.05986479,  -0.10831185,   1.61581016,   2.76477742,    1
2019/09/12 18:08:31.468,  -0.17989999,  -0.42179999,   0.03690000,  -0.04031711,   0.10506882,   0.00366519,  -0.10412792,   1.61723733,   2.78505731,    1
