time[s],speed[m/s],acc_x(0)[G],acc_x(1)[G],acc_x(2)[G],acc_x(3)[G],acc_x(4)[G],acc_x(5)[G],acc_x(6)[G],acc_x(7)[G],acc_x(8)[G],acc_x(9)[G],acc_x(10)[G],acc_x(11)[G],acc_x(12)[G],acc_x(13)[G],acc_x(14)[G],acc_x(15)[G],acc_x(16)[G],acc_x(17)[G],acc_x(18)[G],acc_x(19)[G],acc_x(20)[G],acc_x(21)[G],acc_x(22)[G],acc_x(23)[G],acc_x(24)[G],acc_x(25)[G],acc_x(26)[G],acc_x(27)[G],acc_x(28)[G],acc_x(29)[G],acc_x(30)[G],acc_x(31)[G],acc_x(32)[G],acc_x(33)[G],acc_x(34)[G],acc_x(35)[G],acc_x(36)[G],acc_x(37)[G],acc_x(38)[G],acc_x(39)[G],acc_x(40)[G],acc_x(41)[G],acc_x(42)[G],acc_x(43)[G],acc_x(44)[G],acc_x(45)[G],acc_x(46)[G],acc_x(47)[G],acc_x(48)[G],acc_x(49)[G],acc_y(0)[G],acc_y(1)[G],acc_y(2)[G],acc_y(3)[G],acc_y(4)[G],acc_y(5)[G],acc_y(6)[G],acc_y(7)[G],acc_y(8)[G],acc_y(9)[G],acc_y(10)[G],acc_y(11)[G],acc_y(12)[G],acc_y(13)[G],acc_y(14)[G],acc_y(15)[G],acc_y(16)[G],acc_y(17)[G],acc_y(18)[G],acc_y(19)[G],acc_y(20)[G],acc_y(21)[G],acc_y(22)[G],acc_y(23)[G],acc_y(24)[G],acc_y(25)[G],acc_y(26)[G],acc_y(27)[G],acc_y(28)[G],acc_y(29)[G],acc_y(30)[G],acc_y(31)[G],acc_y(32)[G],acc_y(33)[G],acc_y(34)[G],acc_y(35)[G],acc_y(36)[G],acc_y(37)[G],acc_y(38)[G],acc_y(39)[G],acc_y(40)[G],acc_y(41)[G],acc_y(42)[G],acc_y(43)[G],acc_y(44)[G],acc_y(45)[G],acc_y(46)[G],acc_y(47)[G],acc_y(48)[G],acc_y(49)[G],acc_z(0)[G],acc_z(1)[G],acc_z(2)[G],acc_z(3)[G],acc_z(4)[G],acc_z(5)[G],acc_z(6)[G],acc_z(7)[G],acc_z(8)[G],acc_z(9)[G],acc_z(10)[G],acc_z(11)[G],acc_z(12)[G],acc_z(13)[G],acc_z(14)[G],acc_z(15)[G],acc_z(16)[G],acc_z(17)[G],acc_z(18)[G],acc_z(19)[G],acc_z(20)[G],acc_z(21)[G],acc_z(22)[G],acc_z(23)[G],acc_z(24)[G],acc_z(25)[G],acc_z(26)[G],acc_z(27)[G],acc_z(28)[G],acc_z(29)[G],acc_z(30)[G],acc_z(31)[G],acc_z(32)[G],acc_z(33)[G],acc_z(34)[G],acc_z(35)[G],acc_z(36)[G],acc_z(37)[G],acc_z(38)[G],acc_z(39)[G],acc_z(40)[G],acc_z(41)[G],acc_z(42)[G],acc_z(43)[G],acc_z(44)[G],acc_z(45)[G],acc_z(46)[G],acc_z(47)[G],acc_z(48)[G],acc_z(49)[G],
0, 0.08208116368460878, 1.0505170234693877, 1.051494344897959, 1.048562575510204, 1.0143597275510203, 0.9772252061224489, 0.9742935336734694, 0.9928607938775509, 0.9752707581632653, 0.9557262734693877, 0.9596351704081632, 0.9674529642857141, 0.9879746724489796, 1.000678587755102, 0.9938380183673468, 0.9342272428571428, 0.9557262734693877, 1.0202230724489796, 1.031949763265306, 1.0407447816326532, 1.0260864183673468, 0.9879746724489796, 0.9850429999999999, 0.991883569387755, 1.0065419336734693, 1.0270636418367347, 1.007519157142857, 1.0026330367346938, 0.9948152428571428, 0.9977469153061225, 1.000678587755102, 1.0026330367346938, 1.000678587755102, 0.9987241397959183, 0.9948152428571428, 0.9938380183673468, 0.9948152428571428, 1.0036102602040815, 0.9997013632653061, 0.9948152428571428, 0.9967696908163265, 1.0133825030612245, 1.0124052785714286, 1.009473606122449, 1.0065419336734693, 1.0026330367346938, 0.9957924663265305, 0.9928607938775509, 0.9957924663265305, 0.9987241397959183, 1.001655812244898, 0.01368115306122449, 0.01759005306122449, 0.023453404081632653, 0.01759005306122449, 0.07622356326530612, 0.0830641387755102, 0.061565187755102044, 0.05179293265306122, 0.05863350918367346, 0.0635196357142857, 0.0635196357142857, 0.05667906020408162, 0.04592958469387755, 0.04983848469387755, 0.0752463387755102, 0.08990471428571428, 0.042997909183673466, 0.01954450306122449, 0.0283395306122449, 0.01759005306122449, -0.0009772255102040816, -0.0029316755102040816, 0.009772251020408162, 0.010749477551020407, 0.01368115306122449, 0.008795026530612244, 0.0029316755102040816, 0.0009772255102040816, 0.003908901020408162, 0.006840576530612245, 0.007817801020408162, 0.009772251020408162, 0.01563560306122449, 0.012703927551020408, 0.012703927551020408, 0.006840576530612245, 0.006840576530612245, 0.007817801020408162, 0.01368115306122449, 0.016612828571428567, 0.021498954081632653, 0.021498954081632653, 0.01954450306122449, 0.016612828571428567, 0.02247617857142857, 0.026385078571428567, 0.02247617857142857, 0.01954450306122449, 0.023453404081632653, 0.02736230612244898, 0.03518010612244898, 0.05765628469387755, 0.0635196357142857, -0.004886125510204081, 0.02736230612244898, 0.036157332653061224, 0.012703927551020408, 0.02052172857142857, 0.026385078571428567, 0.00195445, -0.006840576530612245, -0.026385078571428567, -0.04202068163265306, -0.040066232653061216, 0.0029316755102040816, 0.03518010612244898, 0.010749477551020407, 0.04104345714285714, 0.03127120612244898, -0.01759005306122449, -0.029316754081632652, -0.026385078571428567, -0.005863351020408163, 0.004886125510204081, 0.02052172857142857, 0.0029316755102040816, -0.00195445, -0.005863351020408163, 0.0, 0.0009772255102040816, 0.005863351020408163, 0.004886125510204081, 0.0009772255102040816, 0.0009772255102040816, -0.0029316755102040816, -0.0009772255102040816, -0.00195445, 0.006840576530612245, 0.011726702040816326, 0.01759005306122449, 0.02247617857142857, 0.02247617857142857, 0.025407854081632653, 0.016612828571428567, 0.012703927551020408, 0.012703927551020408, 0.01856727857142857, 0.02052172857142857, 0.01856727857142857, 0.02247617857142857, 
1, 0.03591257059420594, 1.008496381632653, 0.9948152428571428, 0.9938380183673468, 1.000678587755102, 1.0036102602040815, 1.008496381632653, 0.9987241397959183, 0.9948152428571428, 0.991883569387755, 0.9957924663265305, 0.9997013632653061, 1.0045874846938774, 1.0026330367346938, 0.9977469153061225, 0.9967696908163265, 1.000678587755102, 0.9977469153061225, 0.9977469153061225, 1.0045874846938774, 1.0055647091836732, 1.007519157142857, 1.0036102602040815, 0.9957924663265305, 0.9938380183673468, 0.9957924663265305, 1.000678587755102, 0.9987241397959183, 0.9967696908163265, 1.0036102602040815, 1.0026330367346938, 1.0026330367346938, 0.9997013632653061, 1.0026330367346938, 0.9997013632653061, 0.9997013632653061, 1.000678587755102, 1.0036102602040815, 0.9957924663265305, 0.9957924663265305, 0.9948152428571428, 0.9977469153061225, 0.9977469153061225, 0.9967696908163265, 0.9967696908163265, 0.9997013632653061, 1.000678587755102, 1.000678587755102, 0.9948152428571428, 0.9948152428571428, 1.000678587755102, 0.0283395306122449, 0.026385078571428567, 0.02736230612244898, 0.033225657142857135, 0.033225657142857135, 0.032248430612244895, 0.03029398163265306, 0.0283395306122449, 0.025407854081632653, 0.02736230612244898, 0.03127120612244898, 0.03029398163265306, 0.03029398163265306, 0.03127120612244898, 0.03127120612244898, 0.029316754081632652, 0.03127120612244898, 0.029316754081632652, 0.03127120612244898, 0.03127120612244898, 0.033225657142857135, 0.029316754081632652, 0.03127120612244898, 0.03420288163265306, 0.032248430612244895, 0.03029398163265306, 0.03420288163265306, 0.036157332653061224, 0.036157332653061224, 0.033225657142857135, 0.033225657142857135, 0.03908900612244898, 0.03420288163265306, 0.036157332653061224, 0.040066232653061216, 0.03811178163265306, 0.03420288163265306, 0.03518010612244898, 0.03518010612244898, 0.03420288163265306, 0.03713455714285714, 0.03518010612244898, 0.03420288163265306, 0.03420288163265306, 0.03713455714285714, 0.03713455714285714, 0.03029398163265306, 0.03420288163265306, 0.033225657142857135, 0.03713455714285714, 0.01954450306122449, 0.02247617857142857, 0.02247617857142857, 0.01954450306122449, 0.02247617857142857, 0.02052172857142857, 0.01759005306122449, 0.016612828571428567, 0.01368115306122449, 0.01368115306122449, 0.01759005306122449, 0.016612828571428567, 0.01759005306122449, 0.01563560306122449, 0.01563560306122449, 0.008795026530612244, 0.006840576530612245, 0.007817801020408162, 0.016612828571428567, 0.01759005306122449, 0.023453404081632653, 0.014658377551020408, 0.005863351020408163, 0.0009772255102040816, 0.005863351020408163, 0.008795026530612244, 0.008795026530612244, 0.012703927551020408, 0.014658377551020408, 0.010749477551020407, 0.008795026530612244, 0.008795026530612244, 0.009772251020408162, 0.004886125510204081, 0.011726702040816326, 0.01368115306122449, 0.0, 0.00195445, 0.00195445, 0.006840576530612245, 0.003908901020408162, 0.00195445, -0.0009772255102040816, 0.0009772255102040816, 0.0, 0.0029316755102040816, 0.003908901020408162, 0.00195445, 0.0, -0.0029316755102040816, 
2, 0.0205696142940674, 1.000678587755102, 0.9997013632653061, 0.9987241397959183, 1.001655812244898, 1.000678587755102, 0.9987241397959183, 0.9967696908163265, 1.0026330367346938, 1.0026330367346938, 1.0055647091836732, 1.0026330367346938, 0.9977469153061225, 0.9957924663265305, 1.0045874846938774, 1.0045874846938774, 1.000678587755102, 0.9948152428571428, 0.9967696908163265, 1.001655812244898, 1.001655812244898, 1.001655812244898, 1.0026330367346938, 1.0045874846938774, 1.0026330367346938, 1.001655812244898, 0.9997013632653061, 0.9957924663265305, 0.9938380183673468, 0.9977469153061225, 0.9997013632653061, 1.001655812244898, 0.9997013632653061, 1.001655812244898, 0.9997013632653061, 0.9977469153061225, 0.9997013632653061, 1.0026330367346938, 1.001655812244898, 1.000678587755102, 0.9977469153061225, 1.000678587755102, 0.9987241397959183, 0.9987241397959183, 0.9997013632653061, 0.9997013632653061, 1.000678587755102, 1.000678587755102, 1.0026330367346938, 1.0065419336734693, 0.9997013632653061, 0.03518010612244898, 0.03518010612244898, 0.03420288163265306, 0.03518010612244898, 0.03811178163265306, 0.03420288163265306, 0.03420288163265306, 0.033225657142857135, 0.03518010612244898, 0.03518010612244898, 0.033225657142857135, 0.03420288163265306, 0.03420288163265306, 0.032248430612244895, 0.03420288163265306, 0.033225657142857135, 0.03811178163265306, 0.03518010612244898, 0.032248430612244895, 0.033225657142857135, 0.03811178163265306, 0.040066232653061216, 0.03127120612244898, 0.032248430612244895, 0.03420288163265306, 0.032248430612244895, 0.03420288163265306, 0.033225657142857135, 0.033225657142857135, 0.036157332653061224, 0.03811178163265306, 0.03518010612244898, 0.033225657142857135, 0.03518010612244898, 0.03518010612244898, 0.03420288163265306, 0.03420288163265306, 0.033225657142857135, 0.03420288163265306, 0.033225657142857135, 0.03518010612244898, 0.036157332653061224, 0.03713455714285714, 0.036157332653061224, 0.03420288163265306, 0.032248430612244895, 0.03811178163265306, 0.03713455714285714, 0.025407854081632653, 0.03029398163265306, 0.00195445, 0.004886125510204081, 0.006840576530612245, 0.006840576530612245, 0.004886125510204081, -0.0009772255102040816, 0.0, 0.009772251020408162, 0.012703927551020408, 0.01368115306122449, 0.006840576530612245, 0.005863351020408163, 0.009772251020408162, 0.012703927551020408, 0.010749477551020407, 0.005863351020408163, 0.005863351020408163, 0.007817801020408162, 0.009772251020408162, 0.007817801020408162, 0.008795026530612244, 0.008795026530612244, 0.012703927551020408, 0.007817801020408162, 0.007817801020408162, 0.0029316755102040816, 0.004886125510204081, 0.006840576530612245, 0.010749477551020407, 0.006840576530612245, 0.009772251020408162, 0.008795026530612244, 0.009772251020408162, 0.007817801020408162, 0.006840576530612245, 0.006840576530612245, 0.007817801020408162, 0.005863351020408163, 0.004886125510204081, 0.007817801020408162, 0.008795026530612244, 0.008795026530612244, 0.006840576530612245, 0.008795026530612244, 0.009772251020408162, 0.009772251020408162, 0.008795026530612244, 0.005863351020408163, 0.014658377551020408, 0.008795026530612244, 
3, 0.01231102055012775, 0.9967696908163265, 0.9938380183673468, 0.9948152428571428, 0.9967696908163265, 1.000678587755102, 1.000678587755102, 1.0026330367346938, 1.008496381632653, 1.0036102602040815, 0.9977469153061225, 0.9997013632653061, 0.9967696908163265, 1.000678587755102, 1.000678587755102, 0.9977469153061225, 1.000678587755102, 1.000678587755102, 1.0026330367346938, 0.9987241397959183, 0.9977469153061225, 0.9977469153061225, 0.9977469153061225, 1.000678587755102, 1.0026330367346938, 1.0045874846938774, 1.001655812244898, 1.000678587755102, 0.9997013632653061, 0.9987241397959183, 1.000678587755102, 1.0036102602040815, 1.001655812244898, 0.9977469153061225, 0.9997013632653061, 0.9997013632653061, 1.0026330367346938, 0.9977469153061225, 0.9977469153061225, 0.9987241397959183, 0.9987241397959183, 1.001655812244898, 0.9997013632653061, 0.9977469153061225, 0.9977469153061225, 1.001655812244898, 1.0065419336734693, 0.9967696908163265, 1.001655812244898, 1.0036102602040815, 1.0036102602040815, 0.03420288163265306, 0.03908900612244898, 0.03908900612244898, 0.03811178163265306, 0.03713455714285714, 0.03518010612244898, 0.03811178163265306, 0.04104345714285714, 0.03908900612244898, 0.036157332653061224, 0.03518010612244898, 0.036157332653061224, 0.040066232653061216, 0.03713455714285714, 0.03908900612244898, 0.036157332653061224, 0.036157332653061224, 0.03713455714285714, 0.036157332653061224, 0.036157332653061224, 0.03908900612244898, 0.03713455714285714, 0.036157332653061224, 0.036157332653061224, 0.042997909183673466, 0.036157332653061224, 0.032248430612244895, 0.033225657142857135, 0.03811178163265306, 0.04202068163265306, 0.03908900612244898, 0.033225657142857135, 0.03420288163265306, 0.04104345714285714, 0.04104345714285714, 0.03713455714285714, 0.036157332653061224, 0.03518010612244898, 0.03713455714285714, 0.03908900612244898, 0.03713455714285714, 0.03713455714285714, 0.03908900612244898, 0.03811178163265306, 0.03518010612244898, 0.03518010612244898, 0.04104345714285714, 0.03518010612244898, 0.03518010612244898, 0.03713455714285714, 0.005863351020408163, 0.003908901020408162, 0.006840576530612245, 0.005863351020408163, 0.010749477551020407, 0.012703927551020408, 0.01368115306122449, 0.011726702040816326, 0.004886125510204081, 0.005863351020408163, 0.004886125510204081, 0.012703927551020408, 0.014658377551020408, 0.012703927551020408, 0.011726702040816326, 0.014658377551020408, 0.01563560306122449, 0.012703927551020408, 0.010749477551020407, 0.009772251020408162, 0.012703927551020408, 0.012703927551020408, 0.01563560306122449, 0.01759005306122449, 0.016612828571428567, 0.01759005306122449, 0.016612828571428567, 0.01368115306122449, 0.012703927551020408, 0.014658377551020408, 0.01954450306122449, 0.01563560306122449, 0.012703927551020408, 0.01954450306122449, 0.01759005306122449, 0.016612828571428567, 0.012703927551020408, 0.012703927551020408, 0.01954450306122449, 0.01954450306122449, 0.01856727857142857, 0.01856727857142857, 0.01759005306122449, 0.01759005306122449, 0.01954450306122449, 0.01856727857142857, 0.016612828571428567, 0.02052172857142857, 0.02052172857142857, 0.01759005306122449, 
4, 0.015621323484532315, 1.000678587755102, 1.000678587755102, 0.9997013632653061, 0.9997013632653061, 0.9967696908163265, 0.9967696908163265, 1.001655812244898, 0.9987241397959183, 0.9977469153061225, 0.9987241397959183, 1.001655812244898, 0.9997013632653061, 0.9967696908163265, 0.9977469153061225, 0.9987241397959183, 1.000678587755102, 1.0026330367346938, 1.000678587755102, 1.000678587755102, 0.9977469153061225, 0.9977469153061225, 0.9987241397959183, 1.0036102602040815, 0.9987241397959183, 0.9977469153061225, 1.000678587755102, 1.0026330367346938, 0.9977469153061225, 1.001655812244898, 1.0026330367346938, 0.9967696908163265, 0.9987241397959183, 1.000678587755102, 1.000678587755102, 0.9987241397959183, 0.9938380183673468, 1.000678587755102, 1.000678587755102, 1.001655812244898, 0.9987241397959183, 0.9997013632653061, 0.9997013632653061, 0.9977469153061225, 1.0055647091836732, 1.001655812244898, 1.001655812244898, 0.9928607938775509, 0.9997013632653061, 1.0045874846938774, 1.0026330367346938, 0.03713455714285714, 0.04104345714285714, 0.03420288163265306, 0.033225657142857135, 0.03518010612244898, 0.03811178163265306, 0.036157332653061224, 0.03518010612244898, 0.03713455714285714, 0.03811178163265306, 0.03811178163265306, 0.036157332653061224, 0.03713455714285714, 0.036157332653061224, 0.03518010612244898, 0.036157332653061224, 0.036157332653061224, 0.036157332653061224, 0.03713455714285714, 0.03713455714285714, 0.03811178163265306, 0.03811178163265306, 0.03713455714285714, 0.03908900612244898, 0.03811178163265306, 0.036157332653061224, 0.03811178163265306, 0.03420288163265306, 0.03811178163265306, 0.03420288163265306, 0.032248430612244895, 0.032248430612244895, 0.03908900612244898, 0.033225657142857135, 0.033225657142857135, 0.036157332653061224, 0.036157332653061224, 0.03713455714285714, 0.03420288163265306, 0.032248430612244895, 0.03518010612244898, 0.036157332653061224, 0.03420288163265306, 0.033225657142857135, 0.03420288163265306, 0.033225657142857135, 0.033225657142857135, 0.03420288163265306, 0.03029398163265306, 0.0283395306122449, 0.01856727857142857, 0.01759005306122449, 0.01856727857142857, 0.01954450306122449, 0.016612828571428567, 0.01856727857142857, 0.01856727857142857, 0.01856727857142857, 0.01856727857142857, 0.02052172857142857, 0.021498954081632653, 0.016612828571428567, 0.01954450306122449, 0.01954450306122449, 0.01954450306122449, 0.01954450306122449, 0.02247617857142857, 0.02052172857142857, 0.01954450306122449, 0.01954450306122449, 0.02247617857142857, 0.023453404081632653, 0.026385078571428567, 0.02247617857142857, 0.0244306306122449, 0.0244306306122449, 0.01954450306122449, 0.01954450306122449, 0.025407854081632653, 0.02052172857142857, 0.023453404081632653, 0.0244306306122449, 0.0244306306122449, 0.021498954081632653, 0.01954450306122449, 0.02247617857142857, 0.0244306306122449, 0.026385078571428567, 0.02247617857142857, 0.023453404081632653, 0.02247617857142857, 0.02247617857142857, 0.023453404081632653, 0.025407854081632653, 0.025407854081632653, 0.021498954081632653, 0.02052172857142857, 0.026385078571428567, 0.02247617857142857, 0.023453404081632653, 
5, 0.017325634633670928, 0.9957924663265305, 0.9948152428571428, 0.9987241397959183, 1.0045874846938774, 0.9997013632653061, 0.9987241397959183, 1.0036102602040815, 1.0026330367346938, 1.001655812244898, 0.9977469153061225, 0.9977469153061225, 0.9987241397959183, 1.000678587755102, 0.9997013632653061, 0.9977469153061225, 0.9977469153061225, 1.0036102602040815, 1.0045874846938774, 1.007519157142857, 1.0045874846938774, 0.9977469153061225, 0.9987241397959183, 0.9987241397959183, 1.0045874846938774, 1.007519157142857, 0.9977469153061225, 0.9977469153061225, 0.9977469153061225, 1.001655812244898, 1.001655812244898, 0.9957924663265305, 0.9987241397959183, 0.9977469153061225, 1.0026330367346938, 1.001655812244898, 1.000678587755102, 1.001655812244898, 1.000678587755102, 0.9987241397959183, 0.9987241397959183, 1.0026330367346938, 1.000678587755102, 0.9957924663265305, 0.9977469153061225, 1.001655812244898, 1.0026330367346938, 0.9967696908163265, 0.9967696908163265, 1.0026330367346938, 1.0036102602040815, 0.03127120612244898, 0.036157332653061224, 0.03518010612244898, 0.032248430612244895, 0.0283395306122449, 0.03029398163265306, 0.03518010612244898, 0.03127120612244898, 0.02736230612244898, 0.03029398163265306, 0.032248430612244895, 0.033225657142857135, 0.03127120612244898, 0.03029398163265306, 0.033225657142857135, 0.032248430612244895, 0.033225657142857135, 0.033225657142857135, 0.03420288163265306, 0.03029398163265306, 0.0283395306122449, 0.029316754081632652, 0.0283395306122449, 0.0283395306122449, 0.03518010612244898, 0.03127120612244898, 0.032248430612244895, 0.02736230612244898, 0.026385078571428567, 0.03029398163265306, 0.032248430612244895, 0.032248430612244895, 0.0244306306122449, 0.029316754081632652, 0.036157332653061224, 0.026385078571428567, 0.0283395306122449, 0.03127120612244898, 0.03518010612244898, 0.03420288163265306, 0.02736230612244898, 0.029316754081632652, 0.033225657142857135, 0.03811178163265306, 0.03713455714285714, 0.03029398163265306, 0.03127120612244898, 0.03908900612244898, 0.03811178163265306, 0.03518010612244898, 0.01954450306122449, 0.021498954081632653, 0.025407854081632653, 0.021498954081632653, 0.021498954081632653, 0.023453404081632653, 0.021498954081632653, 0.02247617857142857, 0.023453404081632653, 0.01954450306122449, 0.01954450306122449, 0.021498954081632653, 0.02247617857142857, 0.02052172857142857, 0.023453404081632653, 0.02247617857142857, 0.023453404081632653, 0.03029398163265306, 0.0283395306122449, 0.02052172857142857, 0.01856727857142857, 0.02052172857142857, 0.02247617857142857, 0.025407854081632653, 0.025407854081632653, 0.021498954081632653, 0.02052172857142857, 0.02247617857142857, 0.021498954081632653, 0.02247617857142857, 0.0244306306122449, 0.02052172857142857, 0.014658377551020408, 0.01368115306122449, 0.016612828571428567, 0.01759005306122449, 0.01954450306122449, 0.01954450306122449, 0.016612828571428567, 0.016612828571428567, 0.014658377551020408, 0.01563560306122449, 0.016612828571428567, 0.016612828571428567, 0.016612828571428567, 0.01759005306122449, 0.01856727857142857, 0.016612828571428567, 0.01856727857142857, 0.02052172857142857, 
6, 0.025678890752329698, 1.0045874846938774, 0.9977469153061225, 0.9957924663265305, 0.9938380183673468, 1.0026330367346938, 1.000678587755102, 1.001655812244898, 1.0026330367346938, 0.9997013632653061, 0.9987241397959183, 0.9967696908163265, 1.0036102602040815, 1.0065419336734693, 1.0055647091836732, 1.000678587755102, 0.9957924663265305, 0.9909063459183672, 0.9997013632653061, 1.0036102602040815, 1.007519157142857, 1.0055647091836732, 0.9948152428571428, 0.9957924663265305, 0.9987241397959183, 1.000678587755102, 0.9977469153061225, 0.9987241397959183, 0.9957924663265305, 0.9997013632653061, 1.0065419336734693, 1.001655812244898, 1.001655812244898, 0.9987241397959183, 0.9997013632653061, 1.000678587755102, 1.000678587755102, 1.0026330367346938, 0.9977469153061225, 0.9967696908163265, 1.0036102602040815, 1.0045874846938774, 1.0036102602040815, 0.9938380183673468, 0.9987241397959183, 0.9987241397959183, 0.9997013632653061, 1.0065419336734693, 1.0026330367346938, 0.9997013632653061, 0.9948152428571428, 0.033225657142857135, 0.03713455714285714, 0.03811178163265306, 0.03713455714285714, 0.03811178163265306, 0.036157332653061224, 0.040066232653061216, 0.042997909183673466, 0.03908900612244898, 0.03420288163265306, 0.033225657142857135, 0.042997909183673466, 0.040066232653061216, 0.03420288163265306, 0.03518010612244898, 0.03908900612244898, 0.04397513265306122, 0.04202068163265306, 0.04202068163265306, 0.04104345714285714, 0.04104345714285714, 0.042997909183673466, 0.03811178163265306, 0.03811178163265306, 0.04104345714285714, 0.03908900612244898, 0.03811178163265306, 0.04104345714285714, 0.042997909183673466, 0.040066232653061216, 0.03713455714285714, 0.03713455714285714, 0.040066232653061216, 0.04104345714285714, 0.04202068163265306, 0.040066232653061216, 0.03713455714285714, 0.036157332653061224, 0.042997909183673466, 0.040066232653061216, 0.03713455714285714, 0.03811178163265306, 0.03811178163265306, 0.03908900612244898, 0.040066232653061216, 0.040066232653061216, 0.03811178163265306, 0.03908900612244898, 0.040066232653061216, 0.03908900612244898, 0.014658377551020408, 0.006840576530612245, 0.004886125510204081, 0.006840576530612245, 0.008795026530612244, 0.010749477551020407, 0.006840576530612245, 0.007817801020408162, 0.003908901020408162, -0.00195445, -0.0009772255102040816, 0.00195445, 0.006840576530612245, 0.008795026530612244, 0.0029316755102040816, -0.0009772255102040816, 0.0, 0.006840576530612245, 0.009772251020408162, 0.009772251020408162, 0.008795026530612244, -0.00195445, 0.005863351020408163, 0.004886125510204081, 0.00195445, -0.0009772255102040816, 0.0029316755102040816, 0.0009772255102040816, 0.0029316755102040816, 0.0029316755102040816, 0.0009772255102040816, 0.00195445, 0.0009772255102040816, -0.00195445, -0.0009772255102040816, -0.00195445, -0.0009772255102040816, -0.0009772255102040816, 0.0, -0.00195445, 0.00195445, 0.0, -0.006840576530612245, -0.007817801020408162, -0.003908901020408162, -0.005863351020408163, -0.007817801020408162, -0.0029316755102040816, -0.005863351020408163, -0.007817801020408162, 
7, 0.020267722967555718, 0.9948152428571428, 0.9997013632653061, 1.0036102602040815, 1.000678587755102, 0.9957924663265305, 0.9967696908163265, 0.9938380183673468, 1.0036102602040815, 1.0045874846938774, 1.0026330367346938, 0.9948152428571428, 0.9967696908163265, 0.9987241397959183, 0.9987241397959183, 1.001655812244898, 0.9977469153061225, 0.9987241397959183, 0.9997013632653061, 1.0026330367346938, 1.0045874846938774, 0.9967696908163265, 0.9967696908163265, 0.9977469153061225, 1.0026330367346938, 1.0026330367346938, 0.9977469153061225, 0.9977469153061225, 1.001655812244898, 1.0104508306122448, 1.0045874846938774, 0.9948152428571428, 0.9967696908163265, 1.0045874846938774, 1.009473606122449, 1.007519157142857, 0.9938380183673468, 0.991883569387755, 0.9957924663265305, 1.0045874846938774, 1.001655812244898, 0.9987241397959183, 0.9997013632653061, 1.000678587755102, 0.9997013632653061, 0.9977469153061225, 0.9997013632653061, 0.9997013632653061, 1.000678587755102, 0.9967696908163265, 0.9987241397959183, 0.03908900612244898, 0.040066232653061216, 0.03908900612244898, 0.03713455714285714, 0.03713455714285714, 0.03811178163265306, 0.04104345714285714, 0.03908900612244898, 0.03713455714285714, 0.03420288163265306, 0.03908900612244898, 0.04104345714285714, 0.040066232653061216, 0.036157332653061224, 0.03713455714285714, 0.03518010612244898, 0.03713455714285714, 0.04202068163265306, 0.03420288163265306, 0.029316754081632652, 0.03420288163265306, 0.03420288163265306, 0.040066232653061216, 0.03518010612244898, 0.033225657142857135, 0.040066232653061216, 0.03713455714285714, 0.03420288163265306, 0.033225657142857135, 0.03420288163265306, 0.03713455714285714, 0.03713455714285714, 0.03713455714285714, 0.03811178163265306, 0.03811178163265306, 0.036157332653061224, 0.03811178163265306, 0.03908900612244898, 0.04104345714285714, 0.04104345714285714, 0.04104345714285714, 0.042997909183673466, 0.042997909183673466, 0.04886126020408163, 0.04202068163265306, 0.03811178163265306, 0.03713455714285714, 0.046906809183673466, 0.05179293265306122, 0.04495235714285714, -0.007817801020408162, -0.0029316755102040816, -0.004886125510204081, -0.008795026530612244, -0.006840576530612245, -0.009772251020408162, -0.004886125510204081, -0.0009772255102040816, 0.0, -0.003908901020408162, -0.004886125510204081, -0.0029316755102040816, -0.0009772255102040816, -0.0029316755102040816, 0.0, -0.00195445, -0.0029316755102040816, 0.0, 0.003908901020408162, 0.004886125510204081, -0.00195445, -0.0009772255102040816, 0.0009772255102040816, 0.0009772255102040816, -0.003908901020408162, -0.00195445, 0.00195445, 0.003908901020408162, 0.0029316755102040816, -0.003908901020408162, -0.010749477551020407, -0.00195445, 0.0, 0.00195445, -0.00195445, -0.010749477551020407, -0.005863351020408163, -0.003908901020408162, -0.0029316755102040816, -0.003908901020408162, 0.0, -0.005863351020408163, -0.004886125510204081, -0.005863351020408163, -0.003908901020408162, -0.004886125510204081, -0.006840576530612245, -0.003908901020408162, -0.00195445, -0.004886125510204081, 
8, 0.047013401998696795, 0.9967696908163265, 1.001655812244898, 1.0065419336734693, 1.0036102602040815, 1.0036102602040815, 0.9967696908163265, 0.9879746724489796, 0.991883569387755, 0.9957924663265305, 0.9977469153061225, 1.0026330367346938, 0.9987241397959183, 0.9967696908163265, 0.9977469153061225, 0.9977469153061225, 0.9957924663265305, 0.9957924663265305, 0.9860202244897959, 1.0055647091836732, 1.0114280540816327, 1.0055647091836732, 1.025109193877551, 0.9869974489795917, 0.9860202244897959, 0.9840657755102039, 0.9869974489795917, 0.9957924663265305, 1.0143597275510203, 1.0133825030612245, 0.9772252061224489, 0.9557262734693877, 1.0163141755102039, 1.053448793877551, 1.0710388295918367, 1.0583349153061223, 1.000678587755102, 0.9811341030612244, 0.9752707581632653, 0.9879746724489796, 0.9869974489795917, 0.9889518969387755, 0.9909063459183672, 1.0055647091836732, 0.9997013632653061, 0.9948152428571428, 0.9791796551020407, 0.9928607938775509, 1.001655812244898, 1.0065419336734693, 1.0036102602040815, 0.04788403265306122, 0.050815709183673466, 0.05179293265306122, 0.04886126020408163, 0.04983848469387755, 0.05667906020408162, 0.052770157142857134, 0.050815709183673466, 0.052770157142857134, 0.06254241224489795, 0.0703602112244898, 0.06254241224489795, 0.05765628469387755, 0.04983848469387755, 0.04495235714285714, 0.04788403265306122, 0.03811178163265306, 0.032248430612244895, 0.036157332653061224, 0.03029398163265306, 0.026385078571428567, 0.01856727857142857, 0.009772251020408162, -0.007817801020408162, -0.04397513265306122, -0.05472461224489796, -0.09381361734693877, -0.12410759897959182, -0.12801649591836733, -0.10456308979591837, -0.061565187755102044, 0.1035858663265306, 0.16026493265306122, 0.13387985408163267, 0.032248430612244895, -0.05374738775510204, -0.046906809183673466, 0.02052172857142857, 0.050815709183673466, 0.06547408469387754, 0.08208691428571428, 0.08795026632653061, 0.05765628469387755, 0.03713455714285714, 0.03908900612244898, 0.05667906020408162, 0.0703602112244898, 0.05667906020408162, 0.03713455714285714, 0.040066232653061216, -0.006840576530612245, -0.005863351020408163, -0.008795026530612244, -0.0029316755102040816, -0.008795026530612244, -0.014658377551020408, -0.016612828571428567, -0.01759005306122449, -0.014658377551020408, -0.012703927551020408, -0.008795026530612244, -0.01759005306122449, -0.02052172857142857, -0.023453404081632653, -0.0283395306122449, -0.029316754081632652, -0.03908900612244898, -0.04592958469387755, -0.04495235714285714, -0.03713455714285714, -0.010749477551020407, -0.04202068163265306, -0.012703927551020408, -0.00195445, 0.014658377551020408, 0.01954450306122449, 0.03908900612244898, 0.05472461224489796, 0.05863350918367346, 0.05472461224489796, -0.009772251020408162, -0.05374738775510204, -0.07915524183673468, -0.040066232653061216, -0.0283395306122449, -0.011726702040816326, -0.04104345714285714, -0.036157332653061224, -0.04788403265306122, -0.04495235714285714, -0.03518010612244898, -0.03127120612244898, -0.016612828571428567, -0.014658377551020408, -0.01856727857142857, -0.02052172857142857, -0.0244306306122449, -0.01563560306122449, -0.011726702040816326, -0.014658377551020408, 
9, 0.024748450056610367, 0.9928607938775509, 0.9977469153061225, 0.9967696908163265, 1.0104508306122448, 1.0143597275510203, 1.0055647091836732, 0.9938380183673468, 0.9899291214285714, 1.0036102602040815, 0.9948152428571428, 0.991883569387755, 0.9957924663265305, 1.0055647091836732, 0.9957924663265305, 0.991883569387755, 0.9957924663265305, 0.9977469153061225, 1.0045874846938774, 1.0280408663265306, 0.9928607938775509, 0.9938380183673468, 0.9977469153061225, 0.9987241397959183, 0.9938380183673468, 0.9997013632653061, 1.0045874846938774, 1.0133825030612245, 0.9977469153061225, 0.9909063459183672, 0.991883569387755, 0.9948152428571428, 0.9909063459183672, 0.9977469153061225, 0.9977469153061225, 1.0036102602040815, 1.007519157142857, 1.0065419336734693, 1.000678587755102, 0.9987241397959183, 0.9928607938775509, 0.9987241397959183, 0.9997013632653061, 1.0026330367346938, 1.000678587755102, 0.9997013632653061, 0.9997013632653061, 0.9987241397959183, 1.0036102602040815, 0.9928607938775509, 0.991883569387755, 0.050815709183673466, 0.07133743571428572, 0.05570183571428571, 0.04397513265306122, 0.050815709183673466, 0.06547408469387754, 0.06840576326530612, 0.05961073877551021, 0.05765628469387755, 0.05765628469387755, 0.06058796326530612, 0.04788403265306122, 0.04788403265306122, 0.052770157142857134, 0.05179293265306122, 0.04592958469387755, 0.04104345714285714, 0.046906809183673466, 0.07231466632653061, 0.05667906020408162, 0.052770157142857134, 0.052770157142857134, 0.05472461224489796, 0.05570183571428571, 0.04104345714285714, 0.04104345714285714, 0.04886126020408163, 0.05179293265306122, 0.04788403265306122, 0.033225657142857135, 0.03908900612244898, 0.04592958469387755, 0.03908900612244898, 0.03908900612244898, 0.032248430612244895, 0.036157332653061224, 0.036157332653061224, 0.04397513265306122, 0.04495235714285714, 0.03811178163265306, 0.03713455714285714, 0.04397513265306122, 0.04495235714285714, 0.04202068163265306, 0.03908900612244898, 0.03713455714285714, 0.033225657142857135, 0.033225657142857135, 0.040066232653061216, 0.040066232653061216, -0.02052172857142857, -0.016612828571428567, -0.009772251020408162, 0.0029316755102040816, 0.003908901020408162, -0.008795026530612244, -0.007817801020408162, -0.006840576530612245, -0.01368115306122449, -0.006840576530612245, -0.0029316755102040816, 0.005863351020408163, -0.003908901020408162, -0.0029316755102040816, -0.004886125510204081, -0.00195445, 0.009772251020408162, 0.014658377551020408, -0.01563560306122449, 0.011726702040816326, -0.0009772255102040816, -0.009772251020408162, -0.016612828571428567, -0.011726702040816326, 0.009772251020408162, 0.006840576530612245, -0.010749477551020407, -0.01856727857142857, -0.02247617857142857, -0.02052172857142857, -0.02052172857142857, -0.01856727857142857, -0.01759005306122449, -0.01759005306122449, -0.005863351020408163, -0.007817801020408162, -0.01759005306122449, -0.023453404081632653, -0.021498954081632653, -0.02247617857142857, -0.02736230612244898, -0.01856727857142857, -0.02247617857142857, -0.01954450306122449, -0.0283395306122449, -0.01759005306122449, -0.021498954081632653, -0.023453404081632653, -0.025407854081632653, -0.026385078571428567, 
10, 0.040248002581450545, 0.9928607938775509, 0.9948152428571428, 1.0065419336734693, 1.0114280540816327, 1.009473606122449, 1.007519157142857, 1.0065419336734693, 1.001655812244898, 0.9948152428571428, 0.9957924663265305, 0.9977469153061225, 0.9899291214285714, 0.9733163091836733, 0.9703846367346938, 0.9801568785714285, 0.9879746724489796, 0.9791796551020407, 0.9645212908163265, 0.9645212908163265, 0.9625668428571429, 1.0104508306122448, 1.053448793877551, 1.0573576908163265, 1.0280408663265306, 1.0182686244897958, 1.0231547448979592, 1.0905833142857142, 1.1150139204081633, 1.1052416785714285, 1.0163141755102039, 0.9791796551020407, 0.9703846367346938, 0.9703846367346938, 0.9664757397959183, 0.9430222612244897, 0.9332500183673469, 0.9068649642857143, 0.8990471704081632, 0.9039332918367347, 0.9117510857142855, 0.9107738612244897, 0.9518173765306123, 0.9674529642857141, 0.9733163091836733, 1.0827655204081632, 1.2811422346938774, 1.2391214959183672, 0.9439994846938775, 0.8970927214285714, 0.9694074122448979, 0.03908900612244898, 0.03420288163265306, 0.03127120612244898, 0.03029398163265306, 0.03420288163265306, 0.03420288163265306, 0.0283395306122449, 0.02052172857142857, 0.01954450306122449, 0.01759005306122449, 0.009772251020408162, 0.009772251020408162, 0.012703927551020408, 0.008795026530612244, 0.009772251020408162, 0.010749477551020407, 0.0, -0.008795026530612244, -0.0029316755102040816, 0.0029316755102040816, 0.026385078571428567, 0.026385078571428567, 0.032248430612244895, 0.029316754081632652, 0.04104345714285714, 0.06449686020408163, 0.06938298775510203, 0.06547408469387754, 0.08599581734693877, 0.14072042346938773, 0.15244712653061224, 0.1544015744897959, 0.15342435102040816, 0.14951545408163264, 0.1387659744897959, 0.1358343020408163, 0.12606204795918366, 0.1348570775510204, 0.12997094489795916, 0.13192540510204082, 0.13192540510204082, 0.14169764795918366, 0.1622193806122449, 0.1465837806122449, 0.10749477551020407, -0.18665001122448976, -0.1876272357142857, 0.1035858663265306, 0.1837183387755102, 0.03811178163265306, -0.021498954081632653, -0.01368115306122449, -0.012703927551020408, -0.014658377551020408, -0.01759005306122449, -0.023453404081632653, -0.021498954081632653, -0.03420288163265306, -0.03127120612244898, -0.0283395306122449, -0.03420288163265306, -0.03420288163265306, -0.042997909183673466, -0.03029398163265306, -0.029316754081632652, -0.03029398163265306, -0.036157332653061224, -0.04788403265306122, -0.04397513265306122, -0.04495235714285714, 0.0009772255102040816, -0.00195445, -0.052770157142857134, -0.08110969081632652, -0.08110969081632652, -0.03908900612244898, -0.03420288163265306, -0.04397513265306122, -0.04202068163265306, -0.029316754081632652, -0.01368115306122449, -0.009772251020408162, -0.014658377551020408, -0.03420288163265306, -0.03713455714285714, -0.033225657142857135, -0.046906809183673466, -0.05765628469387755, -0.05765628469387755, -0.06254241224489795, -0.04886126020408163, -0.0703602112244898, -0.06058796326530612, -0.04983848469387755, -0.17590053265306121, -0.13192540510204082, -0.09381361734693877, -0.01368115306122449, -0.0703602112244898, -0.08795026632653061, 
11, 0.07713395497578578, 1.0641982602040814, 1.076902175510204, 1.0221775214285713, 1.0055647091836732, 0.9752707581632653, 0.9830885520408164, 1.0182686244897958, 0.9987241397959183, 0.9889518969387755, 0.9742935336734694, 0.9498628306122449, 0.9547490489795918, 0.9733163091836733, 0.968430187755102, 0.9713618612244899, 0.9557262734693877, 0.9488856061224489, 0.9518173765306123, 0.9733163091836733, 0.9518173765306123, 1.009473606122449, 1.1208772663265305, 1.03097253877551, 0.8589809765306121, 0.8550720795918366, 0.9635440673469388, 1.1150139204081633, 1.1140366959183674, 1.0954694357142856, 1.069084381632653, 1.015336951020408, 0.9997013632653061, 1.0172913999999997, 1.061266587755102, 1.0387903326530612, 1.0182686244897958, 0.9791796551020407, 0.9352044673469386, 0.9107738612244897, 0.932272793877551, 0.9615896183673468, 0.9547490489795918, 0.9830885520408164, 1.0456309030612243, 1.1199000418367346, 1.1023100051020407, 1.0114280540816327, 0.9400905877551019, 1.0466081265306122, 1.007519157142857, -0.05374738775510204, -0.09283639387755102, -0.040066232653061216, -0.02247617857142857, -0.007817801020408162, -0.009772251020408162, -0.02052172857142857, -0.025407854081632653, -0.03420288163265306, -0.029316754081632652, 0.0, 0.003908901020408162, -0.004886125510204081, -0.03518010612244898, -0.03029398163265306, -0.023453404081632653, -0.02052172857142857, -0.025407854081632653, -0.03029398163265306, -0.02052172857142857, 0.0635196357142857, 0.18665001122448976, 0.08990471428571428, -0.10163141734693877, -0.09576806632653061, 0.003908901020408162, 0.13192540510204082, 0.14267487142857144, 0.10944922346938774, 0.06840576326530612, 0.0752463387755102, 0.09869974489795917, 0.10456308979591837, 0.10651755102040815, 0.09479084183673468, 0.09088194489795919, 0.09674529081632652, 0.08404136326530612, 0.0674285387755102, 0.0830641387755102, 0.10065419285714286, 0.0996769693877551, 0.09088194489795919, 0.06938298775510203, 0.03029398163265306, 0.02247617857142857, 0.050815709183673466, 0.05863350918367346, -0.08208691428571428, -0.09674529081632652, -0.032248430612244895, 0.007817801020408162, -0.05179293265306122, -0.05765628469387755, -0.01563560306122449, 0.01563560306122449, 0.01368115306122449, -0.03908900612244898, -0.05667906020408162, -0.07231466632653061, -0.04886126020408163, -0.03420288163265306, -0.03420288163265306, -0.04886126020408163, -0.05961073877551021, -0.05570183571428571, -0.046906809183673466, -0.010749477551020407, -0.05863350918367346, -0.07915524183673468, -0.11922147857142856, -0.14169764795918366, -0.16319660510204081, -0.10944922346938774, -0.05667906020408162, 0.0029316755102040816, -0.042997909183673466, -0.03908900612244898, -0.029316754081632652, -0.04983848469387755, -0.06840576326530612, -0.026385078571428567, -0.009772251020408162, -0.0029316755102040816, -0.016612828571428567, -0.02736230612244898, -0.04886126020408163, -0.061565187755102044, -0.04886126020408163, -0.0244306306122449, -0.011726702040816326, -0.04495235714285714, -0.05667906020408162, -0.0918591693877551, -0.09381361734693877, -0.08990471428571428, -0.12117592653061224, -0.15831048367346937, -0.18860445918367344, -0.13290262959183674, 
12, 0.0703150231610205, 0.8599582010204082, 0.8990471704081632, 1.0231547448979592, 1.0544260183673468, 1.0788566234693877, 1.0358586602040816, 1.0143597275510203, 0.9713618612244899, 0.9782024306122449, 1.0026330367346938, 1.007519157142857, 0.9928607938775509, 0.9713618612244899, 0.9586579459183673, 0.9498628306122449, 0.9869974489795917, 0.9860202244897959, 0.9742935336734694, 0.947908381632653, 0.9449767091836734, 0.9830885520408164, 0.976247981632653, 0.9752707581632653, 1.1042644540816327, 1.1765791448979592, 0.9713618612244899, 0.9782024306122449, 1.0661527091836733, 1.048562575510204, 1.0212002969387755, 0.9791796551020407, 1.0124052785714286, 1.0202230724489796, 1.0221775214285713, 1.0114280540816327, 0.9899291214285714, 0.9938380183673468, 0.9625668428571429, 0.9381361397959184, 0.947908381632653, 0.9694074122448979, 0.9654985153061224, 0.9518173765306123, 0.9420450367346939, 0.9674529642857141, 0.9850429999999999, 1.068107157142857, 1.0671299326530612, 1.068107157142857, 1.0984011081632652, 0.050815709183673466, 0.11433534489795917, 0.03420288163265306, -0.010749477551020407, -0.07133743571428572, -0.061565187755102044, -0.03518010612244898, -0.025407854081632653, -0.0244306306122449, -0.01368115306122449, -0.009772251020408162, -0.01368115306122449, -0.011726702040816326, -0.006840576530612245, 0.006840576530612245, -0.02247617857142857, -0.03420288163265306, -0.04104345714285714, -0.040066232653061216, -0.03518010612244898, -0.0283395306122449, -0.036157332653061224, -0.03908900612244898, 0.11238089591836734, 0.2101034051020408, -0.032248430612244895, -0.09381361734693877, -0.09869974489795917, 0.032248430612244895, 0.10651755102040815, 0.19153613265306121, 0.13192540510204082, 0.10944922346938774, 0.07622356326530612, 0.07622356326530612, 0.10749477551020407, 0.11628979285714285, 0.12313037551020409, 0.1153125693877551, 0.10749477551020407, 0.11140367244897958, 0.11335812040816325, 0.11238089591836734, 0.12606204795918366, 0.13290262959183674, 0.1182442418367347, 0.050815709183673466, 0.06840576326530612, 0.08795026632653061, 0.04592958469387755, -0.042997909183673466, 0.007817801020408162, -0.029316754081632652, -0.04397513265306122, -0.03811178163265306, -0.04397513265306122, -0.06254241224489795, -0.04104345714285714, -0.03518010612244898, -0.03029398163265306, -0.03420288163265306, -0.03908900612244898, -0.042997909183673466, -0.033225657142857135, -0.010749477551020407, -0.02247617857142857, -0.03811178163265306, -0.06254241224489795, -0.05472461224489796, -0.03908900612244898, -0.0283395306122449, -0.03029398163265306, -0.0703602112244898, -0.12019870204081631, -0.19739948979591834, -0.14560655714285714, -0.1153125693877551, -0.0752463387755102, -0.01954450306122449, 0.007817801020408162, 0.012703927551020408, -0.0029316755102040816, -0.021498954081632653, -0.061565187755102044, -0.06449686020408163, -0.042997909183673466, -0.03029398163265306, -0.0244306306122449, -0.029316754081632652, -0.01563560306122449, -0.011726702040816326, -0.04104345714285714, -0.05179293265306122, -0.0703602112244898, -0.07231466632653061, -0.0918591693877551, -0.09479084183673468, -0.05472461224489796, -0.0703602112244898, -0.13094816938775508, 
13, 0.06992617509509888, 1.1159911448979591, 0.9967696908163265, 0.9899291214285714, 1.0163141755102039, 1.0270636418367347, 1.0172913999999997, 0.9957924663265305, 0.9625668428571429, 0.9635440673469388, 0.9821113275510203, 0.9811341030612244, 0.9635440673469388, 0.9909063459183672, 0.9938380183673468, 0.9782024306122449, 0.9498628306122449, 0.9430222612244897, 0.9615896183673468, 0.9733163091836733, 0.9596351704081632, 0.9586579459183673, 0.9674529642857141, 1.0114280540816327, 1.031949763265306, 1.0378131091836733, 1.0172913999999997, 1.024131969387755, 1.1130594724489795, 1.1365128540816325, 1.0407447816326532, 0.9967696908163265, 0.9977469153061225, 1.000678587755102, 0.9869974489795917, 0.9811341030612244, 0.9713618612244899, 0.9664757397959183, 0.9733163091836733, 0.9635440673469388, 0.9527945999999998, 0.941067812244898, 0.9342272428571428, 0.9391133642857142, 0.9537718244897959, 0.9459539336734692, 0.9752707581632653, 0.9752707581632653, 1.0661527091836733, 1.0524715693877549, 1.1286950602040815, -0.02052172857142857, -0.04104345714285714, 0.04495235714285714, 0.032248430612244895, -0.012703927551020408, -0.05472461224489796, -0.0996769693877551, -0.05179293265306122, -0.036157332653061224, -0.029316754081632652, -0.032248430612244895, -0.04886126020408163, -0.04202068163265306, -0.03518010612244898, -0.03029398163265306, -0.0283395306122449, -0.02736230612244898, -0.036157332653061224, -0.03908900612244898, -0.03713455714285714, -0.0244306306122449, -0.03127120612244898, -0.04788403265306122, -0.021498954081632653, 0.0, 0.08404136326530612, 0.11433534489795917, 0.007817801020408162, -0.04397513265306122, 0.005863351020408163, 0.052770157142857134, 0.07817801122448978, 0.14462933265306122, 0.1465837806122449, 0.14365209591836733, 0.10163141734693877, 0.0674285387755102, 0.08110969081632652, 0.12508482346938776, 0.13094816938775508, 0.12215315102040816, 0.10651755102040815, 0.09674529081632652, 0.12117592653061224, 0.12606204795918366, 0.12019870204081631, 0.12019870204081631, 0.07720078775510204, 0.05179293265306122, -0.10554031428571427, -0.13192540510204082, -0.13974319897959184, -0.04495235714285714, -0.05667906020408162, -0.04788403265306122, -0.042997909183673466, -0.04983848469387755, -0.05472461224489796, -0.05179293265306122, -0.05863350918367346, -0.05179293265306122, -0.025407854081632653, -0.029316754081632652, -0.03518010612244898, -0.05667906020408162, -0.06645131428571427, -0.06449686020408163, -0.061565187755102044, -0.07426911428571428, -0.08404136326530612, -0.08110969081632652, -0.0674285387755102, -0.06840576326530612, -0.11628979285714285, -0.16515105306122446, -0.19739948979591834, -0.1504926775510204, -0.14365209591836733, -0.1153125693877551, -0.08404136326530612, -0.061565187755102044, -0.04104345714285714, -0.006840576530612245, -0.03908900612244898, -0.04788403265306122, -0.0674285387755102, -0.05961073877551021, -0.042997909183673466, -0.05472461224489796, -0.06254241224489795, -0.0635196357142857, -0.07133743571428572, -0.07231466632653061, -0.07915524183673468, -0.06840576326530612, -0.08501859387755101, -0.08501859387755101, -0.07915524183673468, -0.14560655714285714, -0.21498954999999997, 
14, 0.060741493676323276, 1.201986974489796, 0.9508401520408163, 0.8365047224489796, 0.9791796551020407, 1.0984011081632652, 1.0778794, 1.0026330367346938, 0.9782024306122449, 1.0026330367346938, 0.9821113275510203, 0.9664757397959183, 0.9645212908163265, 0.9713618612244899, 0.9752707581632653, 0.9713618612244899, 0.9342272428571428, 0.9430222612244897, 0.9821113275510203, 0.991883569387755, 0.9576807214285713, 0.9342272428571428, 0.9498628306122449, 1.0280408663265306, 1.062243812244898, 1.0720160540816326, 1.032926987755102, 0.9527945999999998, 0.9293411214285714, 1.075924951020408, 1.1335811806122447, 1.0182686244897958, 1.009473606122449, 0.9909063459183672, 0.9840657755102039, 0.9967696908163265, 0.9977469153061225, 0.9909063459183672, 0.9869974489795917, 0.9811341030612244, 0.9742935336734694, 0.9664757397959183, 0.9772252061224489, 0.976247981632653, 0.9596351704081632, 0.9391133642857142, 0.9420450367346939, 1.1218544897959182, 1.107196126530612, 1.0661527091836733, 1.0358586602040816, -0.2091261806122449, -0.011726702040816326, 0.19251335612244896, 0.1387659744897959, -0.04495235714285714, -0.07231466632653061, -0.09479084183673468, -0.0918591693877551, -0.0918591693877551, -0.008795026530612244, 0.0009772255102040816, -0.012703927551020408, -0.036157332653061224, -0.05374738775510204, -0.07622356326530612, -0.04495235714285714, -0.02736230612244898, -0.026385078571428567, -0.03127120612244898, -0.061565187755102044, -0.0752463387755102, -0.052770157142857134, -0.01954450306122449, -0.03029398163265306, -0.01759005306122449, 0.02247617857142857, 0.11726701734693877, 0.10554031428571427, 0.004886125510204081, -0.0244306306122449, 0.09479084183673468, 0.09576806632653061, 0.09381361734693877, 0.10749477551020407, 0.12508482346938776, 0.08892749081632653, 0.07720078775510204, 0.07133743571428572, 0.08013246632653061, 0.09576806632653061, 0.10651755102040815, 0.09576806632653061, 0.10163141734693877, 0.09869974489795917, 0.0996769693877551, 0.10163141734693877, 0.03127120612244898, 0.007817801020408162, 0.0, -0.01759005306122449, -0.23257958673469384, -0.14072042346938773, -0.01856727857142857, -0.03029398163265306, -0.05667906020408162, -0.042997909183673466, -0.04397513265306122, -0.0635196357142857, -0.07231466632653061, -0.03518010612244898, -0.023453404081632653, -0.014658377551020408, -0.01563560306122449, -0.02247617857142857, -0.06254241224489795, -0.06547408469387754, -0.04397513265306122, -0.03811178163265306, -0.04592958469387755, -0.05765628469387755, -0.09674529081632652, -0.08501859387755101, -0.021498954081632653, -0.021498954081632653, -0.10554031428571427, -0.13974319897959184, -0.20033116224489794, -0.16417382959183674, -0.11922147857142856, -0.09381361734693877, -0.046906809183673466, -0.03908900612244898, -0.016612828571428567, -0.01856727857142857, -0.03713455714285714, -0.040066232653061216, -0.04495235714285714, -0.052770157142857134, -0.04397513265306122, -0.04202068163265306, -0.05472461224489796, -0.03908900612244898, -0.04104345714285714, -0.05179293265306122, -0.061565187755102044, -0.05472461224489796, -0.07817801122448978, -0.11238089591836734, -0.12997094489795916, -0.15831048367346937, 
15, 0.05172974850245961, 1.108173351020408, 1.0290180908163264, 0.9225005520408163, 0.8374819459183672, 0.9195688795918366, 1.015336951020408, 1.0133825030612245, 1.001655812244898, 0.9782024306122449, 0.9645212908163265, 0.9547490489795918, 0.9596351704081632, 0.9869974489795917, 1.0143597275510203, 1.015336951020408, 1.0133825030612245, 1.0036102602040815, 0.9948152428571428, 0.9997013632653061, 0.9967696908163265, 0.9967696908163265, 1.0055647091836732, 0.9977469153061225, 0.9987241397959183, 1.000678587755102, 0.9967696908163265, 0.9987241397959183, 0.9987241397959183, 1.001655812244898, 0.9987241397959183, 0.9997013632653061, 0.9997013632653061, 1.001655812244898, 1.0036102602040815, 0.9987241397959183, 0.9987241397959183, 0.9977469153061225, 0.991883569387755, 0.9967696908163265, 1.009473606122449, 1.0104508306122448, 1.0065419336734693, 0.9928607938775509, 1.001655812244898, 1.0026330367346938, 1.001655812244898, 0.9948152428571428, 1.000678587755102, 1.000678587755102, 0.991883569387755, -0.1358343020408163, -0.03518010612244898, 0.06645131428571427, 0.15733325918367347, 0.06254241224489795, -0.01368115306122449, -0.032248430612244895, -0.021498954081632653, -0.01856727857142857, -0.03811178163265306, -0.03811178163265306, 0.010749477551020407, 0.009772251020408162, -0.01856727857142857, -0.01759005306122449, -0.009772251020408162, 0.012703927551020408, 0.007817801020408162, 0.003908901020408162, -0.006840576530612245, -0.006840576530612245, 0.006840576530612245, 0.023453404081632653, 0.01954450306122449, 0.009772251020408162, 0.014658377551020408, 0.029316754081632652, 0.025407854081632653, 0.021498954081632653, 0.01856727857142857, 0.0244306306122449, 0.03029398163265306, 0.032248430612244895, 0.03420288163265306, 0.029316754081632652, 0.036157332653061224, 0.040066232653061216, 0.04104345714285714, 0.03908900612244898, 0.04104345714285714, 0.03811178163265306, 0.03908900612244898, 0.046906809183673466, 0.040066232653061216, 0.03713455714285714, 0.03908900612244898, 0.03908900612244898, 0.03420288163265306, 0.032248430612244895, 0.03518010612244898, -0.18860445918367344, -0.1153125693877551, -0.08208691428571428, 0.010749477551020407, 0.01856727857142857, -0.02247617857142857, -0.03029398163265306, -0.03713455714285714, -0.061565187755102044, -0.0918591693877551, -0.09674529081632652, -0.06058796326530612, -0.033225657142857135, -0.03029398163265306, -0.03420288163265306, -0.03029398163265306, -0.05374738775510204, -0.05179293265306122, -0.05179293265306122, -0.046906809183673466, -0.050815709183673466, -0.05863350918367346, -0.05667906020408162, -0.05667906020408162, -0.046906809183673466, -0.040066232653061216, -0.046906809183673466, -0.05863350918367346, -0.052770157142857134, -0.04886126020408163, -0.04592958469387755, -0.03713455714285714, -0.036157332653061224, -0.05179293265306122, -0.05961073877551021, -0.05961073877551021, -0.05863350918367346, -0.05179293265306122, -0.04104345714285714, -0.04104345714285714, -0.04104345714285714, -0.04592958469387755, -0.04592958469387755, -0.04592958469387755, -0.04202068163265306, -0.04104345714285714, -0.03420288163265306, -0.036157332653061224, -0.033225657142857135, -0.04104345714285714, 
16, 0.020498437946218258, 0.9909063459183672, 0.9938380183673468, 0.9977469153061225, 1.007519157142857, 1.008496381632653, 1.000678587755102, 0.9967696908163265, 0.9967696908163265, 0.9977469153061225, 1.0065419336734693, 1.0124052785714286, 1.0055647091836732, 0.9928607938775509, 0.991883569387755, 0.9977469153061225, 1.0026330367346938, 0.9997013632653061, 1.001655812244898, 0.9948152428571428, 0.9977469153061225, 0.9967696908163265, 1.0026330367346938, 1.001655812244898, 0.9987241397959183, 0.9997013632653061, 0.9967696908163265, 0.9987241397959183, 0.9997013632653061, 1.0026330367346938, 0.9997013632653061, 0.9987241397959183, 1.0036102602040815, 1.007519157142857, 1.0055647091836732, 0.9957924663265305, 0.9928607938775509, 0.9938380183673468, 1.001655812244898, 1.001655812244898, 0.9997013632653061, 1.000678587755102, 0.9987241397959183, 0.9938380183673468, 0.9977469153061225, 0.9997013632653061, 1.0026330367346938, 1.0026330367346938, 0.9977469153061225, 0.9928607938775509, 0.9938380183673468, 0.03420288163265306, 0.02736230612244898, 0.03420288163265306, 0.036157332653061224, 0.03420288163265306, 0.029316754081632652, 0.023453404081632653, 0.025407854081632653, 0.03518010612244898, 0.032248430612244895, 0.029316754081632652, 0.026385078571428567, 0.03029398163265306, 0.03127120612244898, 0.03029398163265306, 0.033225657142857135, 0.033225657142857135, 0.032248430612244895, 0.03029398163265306, 0.03713455714285714, 0.03811178163265306, 0.03420288163265306, 0.03127120612244898, 0.02736230612244898, 0.03127120612244898, 0.033225657142857135, 0.03713455714285714, 0.033225657142857135, 0.032248430612244895, 0.032248430612244895, 0.036157332653061224, 0.03713455714285714, 0.0283395306122449, 0.026385078571428567, 0.026385078571428567, 0.03127120612244898, 0.032248430612244895, 0.03420288163265306, 0.03127120612244898, 0.03518010612244898, 0.03908900612244898, 0.03811178163265306, 0.03127120612244898, 0.03127120612244898, 0.033225657142857135, 0.03518010612244898, 0.03420288163265306, 0.033225657142857135, 0.033225657142857135, 0.03127120612244898, -0.04397513265306122, -0.036157332653061224, -0.032248430612244895, -0.03029398163265306, -0.032248430612244895, -0.03029398163265306, -0.036157332653061224, -0.04592958469387755, -0.02736230612244898, -0.02247617857142857, -0.0283395306122449, -0.03713455714285714, -0.03811178163265306, -0.03908900612244898, -0.04104345714285714, -0.03127120612244898, -0.02736230612244898, -0.036157332653061224, -0.03811178163265306, -0.03127120612244898, -0.032248430612244895, -0.03908900612244898, -0.03908900612244898, -0.03811178163265306, -0.03811178163265306, -0.033225657142857135, -0.03420288163265306, -0.03420288163265306, -0.03420288163265306, -0.040066232653061216, -0.03420288163265306, -0.03713455714285714, -0.03029398163265306, -0.04104345714285714, -0.042997909183673466, -0.046906809183673466, -0.042997909183673466, -0.040066232653061216, -0.03811178163265306, -0.03908900612244898, -0.04104345714285714, -0.040066232653061216, -0.04202068163265306, -0.046906809183673466, -0.040066232653061216, -0.036157332653061224, -0.03811178163265306, -0.04495235714285714, -0.040066232653061216, -0.04104345714285714, 
17, 0.04152631230443159, 0.9957924663265305, 1.0036102602040815, 0.9997013632653061, 0.9967696908163265, 0.9957924663265305, 0.9977469153061225, 0.9997013632653061, 1.0055647091836732, 1.0065419336734693, 1.0026330367346938, 1.000678587755102, 0.9987241397959183, 0.9997013632653061, 1.000678587755102, 0.9987241397959183, 0.9997013632653061, 0.991883569387755, 0.9889518969387755, 1.0026330367346938, 1.0065419336734693, 1.0026330367346938, 0.9957924663265305, 0.9928607938775509, 0.9938380183673468, 0.9977469153061225, 0.9997013632653061, 1.001655812244898, 0.9957924663265305, 0.9977469153061225, 1.0026330367346938, 1.000678587755102, 0.9977469153061225, 1.001655812244898, 1.0045874846938774, 1.000678587755102, 0.9977469153061225, 0.9997013632653061, 1.0026330367346938, 1.001655812244898, 0.9977469153061225, 0.9957924663265305, 0.9977469153061225, 1.000678587755102, 0.9987241397959183, 0.9948152428571428, 0.9967696908163265, 0.9977469153061225, 1.0026330367346938, 0.9997013632653061, 0.9977469153061225, 0.03029398163265306, 0.03811178163265306, 0.03713455714285714, 0.03420288163265306, 0.03420288163265306, 0.036157332653061224, 0.03908900612244898, 0.036157332653061224, 0.03518010612244898, 0.033225657142857135, 0.025407854081632653, 0.03029398163265306, 0.036157332653061224, 0.03811178163265306, 0.036157332653061224, 0.032248430612244895, 0.03029398163265306, 0.03518010612244898, 0.03908900612244898, 0.04202068163265306, 0.03811178163265306, 0.03420288163265306, 0.03420288163265306, 0.03713455714285714, 0.03811178163265306, 0.03713455714285714, 0.03518010612244898, 0.036157332653061224, 0.033225657142857135, 0.03518010612244898, 0.03518010612244898, 0.04104345714285714, 0.040066232653061216, 0.03420288163265306, 0.03127120612244898, 0.033225657142857135, 0.033225657142857135, 0.03029398163265306, 0.029316754081632652, 0.03127120612244898, 0.03029398163265306, 0.0283395306122449, 0.029316754081632652, 0.03029398163265306, 0.032248430612244895, 0.036157332653061224, 0.03420288163265306, 0.03029398163265306, 0.03127120612244898, 0.03127120612244898, -0.03908900612244898, -0.040066232653061216, -0.03908900612244898, -0.04202068163265306, -0.04495235714285714, -0.04495235714285714, -0.04592958469387755, -0.03908900612244898, -0.04495235714285714, -0.04495235714285714, -0.04397513265306122, -0.046906809183673466, -0.04495235714285714, -0.042997909183673466, -0.04202068163265306, -0.04592958469387755, -0.04983848469387755, -0.040066232653061216, -0.03713455714285714, -0.03420288163265306, -0.040066232653061216, -0.042997909183673466, -0.04495235714285714, -0.04397513265306122, -0.04104345714285714, -0.04104345714285714, -0.04495235714285714, -0.04397513265306122, -0.042997909183673466, -0.04495235714285714, -0.04202068163265306, -0.03713455714285714, -0.036157332653061224, -0.04202068163265306, -0.046906809183673466, -0.04886126020408163, -0.042997909183673466, -0.036157332653061224, -0.04104345714285714, -0.04592958469387755, -0.046906809183673466, -0.04495235714285714, -0.04104345714285714, -0.042997909183673466, -0.04202068163265306, -0.042997909183673466, -0.04397513265306122, -0.04104345714285714, -0.042997909183673466, -0.04397513265306122, 
18, 0.0450418156411632, 0.9997013632653061, 0.9987241397959183, 0.9938380183673468, 0.9977469153061225, 1.0055647091836732, 1.0026330367346938, 0.9987241397959183, 0.9938380183673468, 0.9948152428571428, 0.9967696908163265, 0.9997013632653061, 0.9997013632653061, 0.9987241397959183, 1.001655812244898, 1.0036102602040815, 1.008496381632653, 0.991883569387755, 0.9909063459183672, 0.9987241397959183, 1.001655812244898, 1.000678587755102, 1.0026330367346938, 1.0026330367346938, 0.9928607938775509, 0.9977469153061225, 1.0045874846938774, 1.0045874846938774, 1.001655812244898, 0.9957924663265305, 0.9938380183673468, 0.9997013632653061, 1.000678587755102, 1.001655812244898, 1.000678587755102, 0.9938380183673468, 0.9909063459183672, 0.9957924663265305, 1.001655812244898, 1.0026330367346938, 1.0055647091836732, 1.000678587755102, 0.9987241397959183, 1.0036102602040815, 1.0055647091836732, 1.0026330367346938, 0.9899291214285714, 0.9909063459183672, 0.9987241397959183, 0.9957924663265305, 0.991883569387755, 0.032248430612244895, 0.033225657142857135, 0.03127120612244898, 0.029316754081632652, 0.03029398163265306, 0.03420288163265306, 0.03811178163265306, 0.033225657142857135, 0.033225657142857135, 0.032248430612244895, 0.032248430612244895, 0.03518010612244898, 0.03713455714285714, 0.03811178163265306, 0.032248430612244895, 0.029316754081632652, 0.033225657142857135, 0.033225657142857135, 0.033225657142857135, 0.032248430612244895, 0.033225657142857135, 0.03420288163265306, 0.03420288163265306, 0.032248430612244895, 0.033225657142857135, 0.03420288163265306, 0.032248430612244895, 0.02736230612244898, 0.023453404081632653, 0.0244306306122449, 0.0283395306122449, 0.03127120612244898, 0.02736230612244898, 0.026385078571428567, 0.03029398163265306, 0.03420288163265306, 0.0283395306122449, 0.03029398163265306, 0.029316754081632652, 0.029316754081632652, 0.03029398163265306, 0.032248430612244895, 0.036157332653061224, 0.03811178163265306, 0.036157332653061224, 0.03811178163265306, 0.040066232653061216, 0.03713455714285714, 0.04202068163265306, 0.04104345714285714, -0.04788403265306122, -0.04592958469387755, -0.046906809183673466, -0.040066232653061216, -0.04202068163265306, -0.04104345714285714, -0.04592958469387755, -0.04788403265306122, -0.046906809183673466, -0.03811178163265306, -0.040066232653061216, -0.03811178163265306, -0.036157332653061224, -0.04104345714285714, -0.042997909183673466, -0.04104345714285714, -0.04983848469387755, -0.046906809183673466, -0.040066232653061216, -0.04104345714285714, -0.04104345714285714, -0.040066232653061216, -0.04104345714285714, -0.04788403265306122, -0.03811178163265306, -0.03420288163265306, -0.040066232653061216, -0.04592958469387755, -0.04788403265306122, -0.04495235714285714, -0.04202068163265306, -0.04495235714285714, -0.04886126020408163, -0.04788403265306122, -0.04983848469387755, -0.050815709183673466, -0.04495235714285714, -0.04495235714285714, -0.046906809183673466, -0.046906809183673466, -0.04592958469387755, -0.040066232653061216, -0.04104345714285714, -0.04397513265306122, -0.05179293265306122, -0.052770157142857134, -0.04592958469387755, -0.04788403265306122, -0.05472461224489796, -0.05570183571428571, 
19, 0.11691574291406068, 0.9928607938775509, 0.9977469153061225, 1.0045874846938774, 1.0036102602040815, 1.001655812244898, 0.9987241397959183, 0.9977469153061225, 0.9987241397959183, 1.000678587755102, 0.9967696908163265, 0.9957924663265305, 0.9957924663265305, 0.9977469153061225, 0.9909063459183672, 0.9948152428571428, 0.9977469153061225, 1.001655812244898, 1.0026330367346938, 1.0045874846938774, 1.0036102602040815, 0.9938380183673468, 0.9772252061224489, 0.9654985153061224, 0.976247981632653, 0.9869974489795917, 1.008496381632653, 1.0143597275510203, 1.0045874846938774, 1.008496381632653, 1.0124052785714286, 1.015336951020408, 0.9713618612244899, 0.9439994846938775, 0.9352044673469386, 0.9821113275510203, 0.9977469153061225, 1.0495397999999998, 1.0583349153061223, 1.0798338479591836, 1.015336951020408, 0.9234777765306121, 0.8882977040816326, 0.9273866734693877, 0.9703846367346938, 1.0348814357142857, 1.061266587755102, 1.0456309030612243, 1.0163141755102039, 1.0026330367346938, 0.9703846367346938, 0.040066232653061216, 0.03420288163265306, 0.033225657142857135, 0.036157332653061224, 0.03420288163265306, 0.03127120612244898, 0.03127120612244898, 0.029316754081632652, 0.02736230612244898, 0.0283395306122449, 0.03029398163265306, 0.029316754081632652, 0.03127120612244898, 0.026385078571428567, 0.03029398163265306, 0.033225657142857135, 0.03518010612244898, 0.03811178163265306, 0.036157332653061224, 0.03127120612244898, 0.026385078571428567, 0.03518010612244898, 0.05570183571428571, 0.06547408469387754, 0.06547408469387754, 0.05570183571428571, 0.0918591693877551, 0.09576806632653061, 0.09772252040816326, 0.10554031428571427, 0.10749477551020407, 0.1035858663265306, 0.08892749081632653, 0.0996769693877551, 0.11238089591836734, 0.10554031428571427, 0.06547408469387754, 0.07231466632653061, 0.09576806632653061, 0.10260864183673468, 0.07133743571428572, 0.009772251020408162, -0.021498954081632653, -0.008795026530612244, -0.006840576530612245, -0.0283395306122449, -0.061565187755102044, -0.09479084183673468, -0.08208691428571428, -0.0674285387755102, -0.05472461224489796, -0.04397513265306122, -0.04788403265306122, -0.05179293265306122, -0.05570183571428571, -0.04788403265306122, -0.04788403265306122, -0.05374738775510204, -0.06058796326530612, -0.05667906020408162, -0.052770157142857134, -0.05374738775510204, -0.06449686020408163, -0.05961073877551021, -0.05961073877551021, -0.05667906020408162, -0.0635196357142857, -0.06645131428571427, -0.0674285387755102, -0.0703602112244898, -0.08599581734693877, -0.08404136326530612, -0.0830641387755102, -0.06938298775510203, -0.09869974489795917, -0.08892749081632653, -0.0752463387755102, -0.0703602112244898, -0.04788403265306122, -0.04104345714285714, -0.061565187755102044, -0.061565187755102044, -0.06058796326530612, -0.04788403265306122, -0.07720078775510204, -0.10163141734693877, -0.11433534489795917, -0.08208691428571428, -0.09283639387755102, -0.10651755102040815, -0.10944922346938774, -0.08110969081632652, -0.10944922346938774, -0.11335812040816325, -0.08013246632653061, -0.025407854081632653, 0.006840576530612245, -0.033225657142857135, -0.05570183571428571, -0.03127120612244898, 
20, 0.06844144791264493, 0.968430187755102, 0.9576807214285713, 1.0114280540816327, 1.047585351020408, 1.0554032418367347, 1.0729932785714285, 1.0212002969387755, 0.9694074122448979, 0.9576807214285713, 0.9635440673469388, 0.9821113275510203, 0.9997013632653061, 1.000678587755102, 0.9977469153061225, 0.9987241397959183, 0.9967696908163265, 0.9997013632653061, 0.9987241397959183, 0.9840657755102039, 0.9889518969387755, 0.9928607938775509, 0.9938380183673468, 0.9938380183673468, 1.0104508306122448, 1.0104508306122448, 0.9938380183673468, 0.9830885520408164, 0.9830885520408164, 0.9997013632653061, 1.0065419336734693, 1.0055647091836732, 1.0133825030612245, 1.009473606122449, 0.9967696908163265, 1.0045874846938774, 1.009473606122449, 1.008496381632653, 1.0124052785714286, 1.009473606122449, 0.9987241397959183, 0.9977469153061225, 1.007519157142857, 1.0026330367346938, 1.0026330367346938, 0.9997013632653061, 0.9840657755102039, 0.9899291214285714, 1.0065419336734693, 1.0163141755102039, 1.007519157142857, -0.07426911428571428, -0.0830641387755102, 0.07426911428571428, 0.11042644795918366, 0.16124215612244897, 0.12606204795918366, 0.012703927551020408, -0.05570183571428571, -0.05179293265306122, 0.04983848469387755, 0.07231466632653061, 0.07720078775510204, 0.04592958469387755, 0.03420288163265306, 0.04397513265306122, 0.05863350918367346, 0.0635196357142857, 0.05374738775510204, 0.040066232653061216, 0.036157332653061224, 0.036157332653061224, 0.04886126020408163, 0.050815709183673466, 0.04788403265306122, 0.04983848469387755, 0.05179293265306122, 0.04495235714285714, 0.040066232653061216, 0.03811178163265306, 0.042997909183673466, 0.04788403265306122, 0.050815709183673466, 0.04202068163265306, 0.04397513265306122, 0.042997909183673466, 0.04104345714285714, 0.03713455714285714, 0.03908900612244898, 0.05179293265306122, 0.03420288163265306, 0.032248430612244895, 0.04592958469387755, 0.052770157142857134, 0.05179293265306122, 0.04886126020408163, 0.04886126020408163, 0.04495235714285714, 0.042997909183673466, 0.04886126020408163, 0.04592958469387755, -0.016612828571428567, -0.03713455714285714, -0.0703602112244898, -0.0830641387755102, -0.08795026632653061, -0.06254241224489795, -0.0703602112244898, -0.06938298775510203, -0.05961073877551021, -0.0635196357142857, -0.06840576326530612, -0.06058796326530612, -0.06840576326530612, -0.029316754081632652, -0.032248430612244895, -0.029316754081632652, -0.01856727857142857, -0.040066232653061216, -0.046906809183673466, -0.052770157142857134, -0.05863350918367346, -0.046906809183673466, -0.0244306306122449, -0.004886125510204081, -0.01759005306122449, -0.02736230612244898, -0.0283395306122449, -0.03518010612244898, -0.025407854081632653, -0.02247617857142857, -0.01368115306122449, -0.007817801020408162, -0.01759005306122449, -0.016612828571428567, -0.016612828571428567, -0.010749477551020407, -0.009772251020408162, -0.007817801020408162, -0.003908901020408162, -0.016612828571428567, -0.008795026530612244, 0.0, -0.003908901020408162, -0.007817801020408162, -0.012703927551020408, -0.023453404081632653, -0.010749477551020407, 0.0, -0.009772251020408162, -0.007817801020408162, 
21, 0.01743394420086778, 0.9948152428571428, 0.9899291214285714, 0.9850429999999999, 0.9840657755102039, 1.007519157142857, 1.008496381632653, 0.9997013632653061, 0.991883569387755, 0.9899291214285714, 0.9957924663265305, 1.000678587755102, 1.000678587755102, 0.9997013632653061, 0.9948152428571428, 0.9967696908163265, 1.0026330367346938, 1.0045874846938774, 0.9987241397959183, 0.9957924663265305, 0.9977469153061225, 1.001655812244898, 0.9967696908163265, 0.9957924663265305, 0.9997013632653061, 1.000678587755102, 1.0045874846938774, 1.0045874846938774, 0.9997013632653061, 0.9899291214285714, 0.9889518969387755, 0.9957924663265305, 0.9967696908163265, 0.9948152428571428, 1.001655812244898, 1.008496381632653, 1.0065419336734693, 1.000678587755102, 1.000678587755102, 1.001655812244898, 1.000678587755102, 1.000678587755102, 0.9987241397959183, 0.9987241397959183, 1.0055647091836732, 1.000678587755102, 0.9938380183673468, 0.9977469153061225, 1.000678587755102, 1.001655812244898, 1.0055647091836732, 0.046906809183673466, 0.04202068163265306, 0.04886126020408163, 0.04886126020408163, 0.046906809183673466, 0.05179293265306122, 0.050815709183673466, 0.04202068163265306, 0.040066232653061216, 0.04592958469387755, 0.04886126020408163, 0.04788403265306122, 0.04592958469387755, 0.042997909183673466, 0.03713455714285714, 0.040066232653061216, 0.040066232653061216, 0.040066232653061216, 0.036157332653061224, 0.033225657142857135, 0.03811178163265306, 0.03811178163265306, 0.040066232653061216, 0.03811178163265306, 0.03811178163265306, 0.03127120612244898, 0.032248430612244895, 0.04104345714285714, 0.04397513265306122, 0.04202068163265306, 0.03713455714285714, 0.040066232653061216, 0.04104345714285714, 0.04397513265306122, 0.04592958469387755, 0.03908900612244898, 0.03518010612244898, 0.04104345714285714, 0.046906809183673466, 0.046906809183673466, 0.03811178163265306, 0.03811178163265306, 0.04104345714285714, 0.04495235714285714, 0.04886126020408163, 0.046906809183673466, 0.04397513265306122, 0.04495235714285714, 0.04397513265306122, 0.046906809183673466, -0.014658377551020408, -0.02736230612244898, -0.033225657142857135, -0.025407854081632653, -0.0029316755102040816, -0.00195445, -0.010749477551020407, -0.025407854081632653, -0.021498954081632653, -0.00195445, -0.00195445, -0.009772251020408162, -0.02052172857142857, -0.021498954081632653, -0.012703927551020408, -0.011726702040816326, -0.007817801020408162, -0.009772251020408162, -0.008795026530612244, -0.008795026530612244, -0.011726702040816326, -0.011726702040816326, -0.010749477551020407, -0.007817801020408162, -0.0029316755102040816, 0.0, -0.003908901020408162, -0.0029316755102040816, -0.004886125510204081, -0.004886125510204081, -0.011726702040816326, -0.004886125510204081, 0.0, 0.005863351020408163, 0.0029316755102040816, 0.006840576530612245, -0.00195445, -0.003908901020408162, -0.0009772255102040816, -0.0009772255102040816, -0.0029316755102040816, -0.0029316755102040816, 0.00195445, 0.0029316755102040816, 0.00195445, 0.00195445, 0.0, 0.00195445, 0.0029316755102040816, 0.003908901020408162, 
22, 0.0207886203714801, 1.0026330367346938, 1.0045874846938774, 0.9967696908163265, 0.991883569387755, 0.991883569387755, 0.9938380183673468, 0.9987241397959183, 1.0045874846938774, 1.0065419336734693, 0.9997013632653061, 0.9977469153061225, 1.000678587755102, 1.0026330367346938, 1.0055647091836732, 0.9997013632653061, 0.9997013632653061, 1.001655812244898, 0.9987241397959183, 0.9977469153061225, 0.9987241397959183, 1.0036102602040815, 1.0036102602040815, 0.9967696908163265, 0.9957924663265305, 0.9957924663265305, 1.0045874846938774, 1.0055647091836732, 1.0036102602040815, 0.9977469153061225, 0.9977469153061225, 0.9987241397959183, 0.9987241397959183, 0.9987241397959183, 0.9977469153061225, 1.001655812244898, 1.001655812244898, 0.9977469153061225, 1.000678587755102, 1.0055647091836732, 1.000678587755102, 0.9997013632653061, 0.9957924663265305, 0.9977469153061225, 0.9899291214285714, 0.9938380183673468, 1.001655812244898, 1.007519157142857, 1.0026330367346938, 0.9987241397959183, 0.9977469153061225, 0.04983848469387755, 0.04104345714285714, 0.040066232653061216, 0.04202068163265306, 0.04592958469387755, 0.04495235714285714, 0.04592958469387755, 0.050815709183673466, 0.05179293265306122, 0.050815709183673466, 0.04886126020408163, 0.04495235714285714, 0.046906809183673466, 0.050815709183673466, 0.05765628469387755, 0.050815709183673466, 0.04495235714285714, 0.04886126020408163, 0.04788403265306122, 0.04788403265306122, 0.04788403265306122, 0.04886126020408163, 0.046906809183673466, 0.042997909183673466, 0.04104345714285714, 0.050815709183673466, 0.050815709183673466, 0.04202068163265306, 0.04104345714285714, 0.040066232653061216, 0.042997909183673466, 0.04104345714285714, 0.03811178163265306, 0.040066232653061216, 0.040066232653061216, 0.03811178163265306, 0.04104345714285714, 0.040066232653061216, 0.04104345714285714, 0.03908900612244898, 0.04104345714285714, 0.036157332653061224, 0.03713455714285714, 0.03811178163265306, 0.036157332653061224, 0.03811178163265306, 0.04104345714285714, 0.04592958469387755, 0.03908900612244898, 0.03713455714285714, 0.006840576530612245, 0.008795026530612244, -0.005863351020408163, -0.005863351020408163, -0.003908901020408162, 0.0029316755102040816, 0.009772251020408162, 0.008795026530612244, 0.008795026530612244, 0.003908901020408162, 0.00195445, 0.011726702040816326, 0.008795026530612244, 0.009772251020408162, 0.011726702040816326, 0.010749477551020407, 0.003908901020408162, 0.007817801020408162, 0.009772251020408162, 0.01368115306122449, 0.009772251020408162, 0.004886125510204081, 0.0009772255102040816, 0.0029316755102040816, 0.005863351020408163, 0.003908901020408162, 0.007817801020408162, 0.010749477551020407, 0.006840576530612245, 0.00195445, -0.00195445, 0.0009772255102040816, -0.003908901020408162, 0.005863351020408163, 0.0029316755102040816, -0.0029316755102040816, 0.0009772255102040816, 0.006840576530612245, 0.0029316755102040816, 0.005863351020408163, 0.0009772255102040816, -0.005863351020408163, -0.008795026530612244, -0.009772251020408162, -0.0009772255102040816, 0.003908901020408162, 0.0, -0.003908901020408162, -0.005863351020408163, -0.003908901020408162, 
23, 0.014899142564909896, 0.9977469153061225, 1.000678587755102, 1.0055647091836732, 1.0065419336734693, 0.9987241397959183, 1.001655812244898, 0.9977469153061225, 0.9987241397959183, 0.9977469153061225, 0.9948152428571428, 0.9967696908163265, 1.0036102602040815, 0.9987241397959183, 0.9997013632653061, 1.0036102602040815, 1.0026330367346938, 0.9987241397959183, 0.9977469153061225, 1.000678587755102, 1.0055647091836732, 1.0036102602040815, 1.0036102602040815, 1.001655812244898, 1.0026330367346938, 1.000678587755102, 0.991883569387755, 0.9909063459183672, 0.9957924663265305, 0.9957924663265305, 1.0026330367346938, 0.9948152428571428, 0.9938380183673468, 0.9928607938775509, 0.9967696908163265, 1.000678587755102, 1.000678587755102, 1.0026330367346938, 1.0036102602040815, 0.9987241397959183, 0.9987241397959183, 1.0045874846938774, 0.9977469153061225, 0.9938380183673468, 0.9977469153061225, 1.0026330367346938, 1.001655812244898, 0.9938380183673468, 0.9948152428571428, 0.9987241397959183, 1.0026330367346938, 0.040066232653061216, 0.04788403265306122, 0.04592958469387755, 0.03811178163265306, 0.04104345714285714, 0.04495235714285714, 0.04202068163265306, 0.04202068163265306, 0.040066232653061216, 0.04592958469387755, 0.04495235714285714, 0.04592958469387755, 0.04495235714285714, 0.03811178163265306, 0.042997909183673466, 0.04495235714285714, 0.04397513265306122, 0.04104345714285714, 0.04202068163265306, 0.04592958469387755, 0.04592958469387755, 0.046906809183673466, 0.04495235714285714, 0.04397513265306122, 0.04495235714285714, 0.04397513265306122, 0.04397513265306122, 0.04592958469387755, 0.04592958469387755, 0.04202068163265306, 0.04592958469387755, 0.04495235714285714, 0.04202068163265306, 0.04202068163265306, 0.04202068163265306, 0.046906809183673466, 0.04495235714285714, 0.04397513265306122, 0.04202068163265306, 0.04104345714285714, 0.040066232653061216, 0.04104345714285714, 0.042997909183673466, 0.04202068163265306, 0.04104345714285714, 0.03713455714285714, 0.03713455714285714, 0.03908900612244898, 0.03908900612244898, 0.03908900612244898, -0.0029316755102040816, -0.006840576530612245, 0.00195445, 0.003908901020408162, -0.0009772255102040816, -0.003908901020408162, -0.008795026530612244, -0.009772251020408162, -0.006840576530612245, -0.00195445, 0.0, -0.0029316755102040816, -0.004886125510204081, -0.005863351020408163, -0.007817801020408162, -0.008795026530612244, -0.007817801020408162, -0.008795026530612244, -0.005863351020408163, 0.0, 0.0, -0.0009772255102040816, -0.00195445, -0.0029316755102040816, -0.009772251020408162, -0.016612828571428567, -0.012703927551020408, -0.006840576530612245, -0.003908901020408162, -0.006840576530612245, -0.010749477551020407, -0.012703927551020408, -0.012703927551020408, -0.012703927551020408, -0.005863351020408163, -0.00195445, -0.00195445, -0.012703927551020408, -0.010749477551020407, -0.009772251020408162, -0.008795026530612244, -0.011726702040816326, -0.008795026530612244, -0.006840576530612245, -0.005863351020408163, -0.011726702040816326, -0.008795026530612244, -0.007817801020408162, -0.0029316755102040816, -0.00195445, 
24, 0.08788628764991331, 1.0026330367346938, 1.001655812244898, 1.000678587755102, 0.9957924663265305, 1.0026330367346938, 1.0026330367346938, 0.9987241397959183, 0.9987241397959183, 0.9987241397959183, 0.9987241397959183, 0.9957924663265305, 0.9997013632653061, 1.001655812244898, 1.0026330367346938, 1.0036102602040815, 1.0045874846938774, 1.001655812244898, 1.000678587755102, 0.9997013632653061, 0.9977469153061225, 0.9967696908163265, 0.9948152428571428, 0.9957924663265305, 0.991883569387755, 0.9967696908163265, 0.9987241397959183, 0.9899291214285714, 0.9987241397959183, 1.0045874846938774, 1.0133825030612245, 1.0124052785714286, 1.001655812244898, 1.0133825030612245, 1.0143597275510203, 1.009473606122449, 1.009473606122449, 1.008496381632653, 0.9967696908163265, 0.9957924663265305, 0.9987241397959183, 0.9977469153061225, 0.9948152428571428, 0.9909063459183672, 0.9967696908163265, 0.9997013632653061, 1.0036102602040815, 1.0036102602040815, 0.9967696908163265, 0.9987241397959183, 0.9987241397959183, 0.03908900612244898, 0.03713455714285714, 0.03908900612244898, 0.03811178163265306, 0.033225657142857135, 0.03518010612244898, 0.040066232653061216, 0.040066232653061216, 0.03811178163265306, 0.040066232653061216, 0.03811178163265306, 0.03908900612244898, 0.03811178163265306, 0.03713455714285714, 0.04104345714285714, 0.04104345714285714, 0.03908900612244898, 0.040066232653061216, 0.040066232653061216, 0.042997909183673466, 0.042997909183673466, 0.03908900612244898, 0.040066232653061216, 0.040066232653061216, 0.04202068163265306, 0.03908900612244898, 0.03811178163265306, 0.040066232653061216, 0.042997909183673466, 0.04104345714285714, 0.03420288163265306, 0.03518010612244898, 0.03908900612244898, 0.04202068163265306, 0.04397513265306122, 0.03811178163265306, 0.04104345714285714, 0.050815709183673466, 0.05179293265306122, 0.04886126020408163, 0.04202068163265306, 0.03908900612244898, 0.04202068163265306, 0.04202068163265306, 0.040066232653061216, 0.03908900612244898, 0.04592958469387755, 0.042997909183673466, 0.042997909183673466, 0.04397513265306122, -0.005863351020408163, -0.006840576530612245, -0.006840576530612245, -0.011726702040816326, -0.0029316755102040816, -0.003908901020408162, -0.004886125510204081, -0.006840576530612245, -0.004886125510204081, -0.005863351020408163, -0.008795026530612244, -0.008795026530612244, -0.006840576530612245, -0.0029316755102040816, -0.004886125510204081, -0.005863351020408163, -0.009772251020408162, -0.006840576530612245, -0.005863351020408163, -0.011726702040816326, -0.012703927551020408, -0.010749477551020407, -0.012703927551020408, -0.003908901020408162, -0.0029316755102040816, -0.009772251020408162, -0.021498954081632653, -0.01856727857142857, -0.014658377551020408, -0.005863351020408163, -0.009772251020408162, -0.016612828571428567, -0.011726702040816326, -0.010749477551020407, -0.01368115306122449, -0.008795026530612244, -0.007817801020408162, -0.0029316755102040816, -0.006840576530612245, -0.006840576530612245, -0.006840576530612245, -0.009772251020408162, -0.01368115306122449, -0.008795026530612244, -0.012703927551020408, -0.016612828571428567, -0.014658377551020408, -0.012703927551020408, -0.009772251020408162, -0.01856727857142857, 
25, 0.07411133322435395, 0.9957924663265305, 0.9967696908163265, 1.0026330367346938, 0.9977469153061225, 0.9997013632653061, 1.000678587755102, 0.9997013632653061, 1.000678587755102, 0.9938380183673468, 0.9889518969387755, 0.9987241397959183, 1.0045874846938774, 1.0026330367346938, 1.000678587755102, 1.0045874846938774, 1.0036102602040815, 0.9997013632653061, 0.9977469153061225, 0.9909063459183672, 0.9928607938775509, 0.9957924663265305, 1.000678587755102, 0.9997013632653061, 0.9987241397959183, 1.0026330367346938, 1.001655812244898, 1.001655812244898, 0.9938380183673468, 0.9957924663265305, 0.9977469153061225, 1.001655812244898, 1.0026330367346938, 0.9987241397959183, 1.000678587755102, 1.000678587755102, 0.9977469153061225, 0.9977469153061225, 1.000678587755102, 0.9967696908163265, 0.9928607938775509, 0.9987241397959183, 1.007519157142857, 1.0055647091836732, 1.000678587755102, 1.000678587755102, 1.001655812244898, 1.0045874846938774, 1.0036102602040815, 0.9948152428571428, 0.991883569387755, 0.04592958469387755, 0.04495235714285714, 0.042997909183673466, 0.04104345714285714, 0.04397513265306122, 0.04495235714285714, 0.03908900612244898, 0.036157332653061224, 0.03908900612244898, 0.04397513265306122, 0.04495235714285714, 0.040066232653061216, 0.03908900612244898, 0.04495235714285714, 0.04397513265306122, 0.040066232653061216, 0.03811178163265306, 0.040066232653061216, 0.04202068163265306, 0.042997909183673466, 0.04397513265306122, 0.042997909183673466, 0.040066232653061216, 0.04104345714285714, 0.04397513265306122, 0.04592958469387755, 0.04397513265306122, 0.04495235714285714, 0.042997909183673466, 0.04202068163265306, 0.04397513265306122, 0.04592958469387755, 0.04104345714285714, 0.03811178163265306, 0.04104345714285714, 0.042997909183673466, 0.04397513265306122, 0.04104345714285714, 0.03908900612244898, 0.042997909183673466, 0.04592958469387755, 0.046906809183673466, 0.04592958469387755, 0.03908900612244898, 0.03518010612244898, 0.04592958469387755, 0.04495235714285714, 0.04104345714285714, 0.040066232653061216, 0.042997909183673466, -0.026385078571428567, -0.026385078571428567, -0.01856727857142857, -0.016612828571428567, -0.01856727857142857, -0.025407854081632653, -0.01856727857142857, -0.021498954081632653, -0.033225657142857135, -0.032248430612244895, -0.02247617857142857, -0.023453404081632653, -0.023453404081632653, -0.01759005306122449, -0.023453404081632653, -0.025407854081632653, -0.029316754081632652, -0.032248430612244895, -0.032248430612244895, -0.026385078571428567, -0.0283395306122449, -0.0283395306122449, -0.0283395306122449, -0.025407854081632653, -0.01759005306122449, -0.02052172857142857, -0.03127120612244898, -0.0283395306122449, -0.03029398163265306, -0.026385078571428567, -0.0283395306122449, -0.029316754081632652, -0.025407854081632653, -0.026385078571428567, -0.032248430612244895, -0.03420288163265306, -0.0283395306122449, -0.03127120612244898, -0.032248430612244895, -0.0283395306122449, -0.033225657142857135, -0.03029398163265306, -0.0244306306122449, -0.03029398163265306, -0.03127120612244898, -0.03127120612244898, -0.029316754081632652, -0.01856727857142857, -0.02736230612244898, -0.026385078571428567, 
26, 0.06744984458212834, 0.9967696908163265, 0.9987241397959183, 0.9967696908163265, 0.9948152428571428, 0.9987241397959183, 0.9957924663265305, 1.000678587755102, 0.9997013632653061, 1.0026330367346938, 0.9997013632653061, 0.9909063459183672, 1.001655812244898, 1.0036102602040815, 1.0026330367346938, 1.001655812244898, 0.9977469153061225, 0.9987241397959183, 0.9948152428571428, 0.9987241397959183, 1.001655812244898, 1.001655812244898, 1.0026330367346938, 1.000678587755102, 0.9977469153061225, 0.9957924663265305, 0.9948152428571428, 1.000678587755102, 1.0026330367346938, 1.0036102602040815, 1.000678587755102, 1.001655812244898, 0.9987241397959183, 1.001655812244898, 1.0026330367346938, 1.000678587755102, 0.9987241397959183, 0.9957924663265305, 0.9967696908163265, 0.9967696908163265, 0.9957924663265305, 0.9977469153061225, 1.001655812244898, 1.0036102602040815, 1.0036102602040815, 1.0045874846938774, 1.001655812244898, 0.9997013632653061, 0.9987241397959183, 0.9987241397959183, 0.9997013632653061, 0.04788403265306122, 0.04592958469387755, 0.04983848469387755, 0.04886126020408163, 0.04397513265306122, 0.042997909183673466, 0.04886126020408163, 0.04886126020408163, 0.03713455714285714, 0.03518010612244898, 0.04397513265306122, 0.04592958469387755, 0.04397513265306122, 0.04202068163265306, 0.04202068163265306, 0.04495235714285714, 0.04397513265306122, 0.04202068163265306, 0.042997909183673466, 0.040066232653061216, 0.040066232653061216, 0.04104345714285714, 0.04104345714285714, 0.03908900612244898, 0.03713455714285714, 0.03713455714285714, 0.042997909183673466, 0.04592958469387755, 0.042997909183673466, 0.03908900612244898, 0.04202068163265306, 0.04202068163265306, 0.042997909183673466, 0.042997909183673466, 0.03908900612244898, 0.03713455714285714, 0.040066232653061216, 0.04397513265306122, 0.04202068163265306, 0.04202068163265306, 0.042997909183673466, 0.04886126020408163, 0.04397513265306122, 0.04202068163265306, 0.04202068163265306, 0.042997909183673466, 0.04592958469387755, 0.042997909183673466, 0.046906809183673466, 0.04592958469387755, -0.02052172857142857, -0.025407854081632653, -0.02736230612244898, -0.01759005306122449, -0.01563560306122449, -0.0244306306122449, -0.03518010612244898, -0.032248430612244895, -0.023453404081632653, -0.0244306306122449, -0.032248430612244895, -0.021498954081632653, -0.02052172857142857, -0.023453404081632653, -0.0283395306122449, -0.0244306306122449, -0.0283395306122449, -0.03127120612244898, -0.02247617857142857, -0.021498954081632653, -0.02247617857142857, -0.025407854081632653, -0.025407854081632653, -0.029316754081632652, -0.02736230612244898, -0.023453404081632653, -0.014658377551020408, -0.016612828571428567, -0.02247617857142857, -0.01954450306122449, -0.023453404081632653, -0.01954450306122449, -0.021498954081632653, -0.02052172857142857, -0.0244306306122449, -0.02736230612244898, -0.02247617857142857, -0.02736230612244898, -0.0283395306122449, -0.02247617857142857, -0.01856727857142857, -0.01368115306122449, -0.01563560306122449, -0.010749477551020407, -0.014658377551020408, -0.023453404081632653, -0.01759005306122449, -0.01954450306122449, -0.02247617857142857, -0.023453404081632653, 
27, 0.07605202105607539, 0.9967696908163265, 0.9957924663265305, 0.9997013632653061, 1.0026330367346938, 0.9987241397959183, 1.0026330367346938, 1.000678587755102, 1.0036102602040815, 1.0045874846938774, 1.0026330367346938, 0.9977469153061225, 0.9928607938775509, 0.9791796551020407, 0.9879746724489796, 1.015336951020408, 1.0055647091836732, 0.9625668428571429, 0.9654985153061224, 1.0065419336734693, 1.0143597275510203, 1.0290180908163264, 0.9997013632653061, 0.9850429999999999, 0.9088194122448979, 0.8472541887755102, 0.900024394897959, 1.03097253877551, 1.1355356295918366, 1.0896060908163265, 1.076902175510204, 1.1941691806122448, 1.2058958714285712, 1.068107157142857, 0.9586579459183673, 0.9449767091836734, 0.9674529642857141, 0.9625668428571429, 0.9576807214285713, 0.9508401520408163, 0.9449767091836734, 0.9391133642857142, 0.9420450367346939, 0.9312955704081631, 0.9156599826530613, 0.9146827581632652, 0.9938380183673468, 0.9997013632653061, 0.9840657755102039, 0.9694074122448979, 1.025109193877551, 0.04202068163265306, 0.04202068163265306, 0.04592958469387755, 0.04397513265306122, 0.04104345714285714, 0.04592958469387755, 0.04495235714285714, 0.04495235714285714, 0.046906809183673466, 0.03713455714285714, 0.029316754081632652, 0.025407854081632653, 0.0244306306122449, 0.032248430612244895, 0.006840576530612245, -0.02736230612244898, -0.03420288163265306, -0.014658377551020408, 0.0283395306122449, 0.033225657142857135, 0.01368115306122449, 0.01856727857142857, 0.005863351020408163, -0.01856727857142857, 0.00195445, 0.03908900612244898, 0.08208691428571428, 0.07720078775510204, 0.05570183571428571, 0.07622356326530612, 0.08795026632653061, 0.07915524183673468, 0.08599581734693877, 0.07720078775510204, 0.09674529081632652, 0.0830641387755102, 0.0752463387755102, 0.08501859387755101, 0.11238089591836734, 0.11335812040816325, 0.09674529081632652, 0.08501859387755101, 0.09479084183673468, 0.1035858663265306, 0.1153125693877551, 0.1719916357142857, 0.19251335612244896, 0.21205785306122446, 0.2101034051020408, 0.1514699020408163, -0.0244306306122449, -0.026385078571428567, -0.01954450306122449, -0.02052172857142857, -0.0283395306122449, -0.025407854081632653, -0.021498954081632653, -0.026385078571428567, -0.029316754081632652, -0.02247617857142857, -0.02052172857142857, -0.02052172857142857, -0.011726702040816326, 0.010749477551020407, 0.005863351020408163, -0.023453404081632653, -0.008795026530612244, 0.029316754081632652, 0.07817801122448978, 0.09381361734693877, 0.09576806632653061, 0.04104345714285714, 0.01856727857142857, -0.10749477551020407, -0.1485382295918367, -0.12117592653061224, -0.05863350918367346, -0.014658377551020408, 0.01856727857142857, 0.12117592653061224, 0.1358343020408163, 0.07231466632653061, 0.0, -0.025407854081632653, -0.0009772255102040816, 0.004886125510204081, 0.008795026530612244, 0.03811178163265306, 0.042997909183673466, 0.03811178163265306, 0.06058796326530612, 0.05374738775510204, 0.01563560306122449, -0.003908901020408162, 0.029316754081632652, 0.05570183571428571, 0.04592958469387755, 0.05179293265306122, 0.06449686020408163, -0.0009772255102040816, 
28, 0.770719181711814, 1.1101277989795917, 1.18439693877551, 1.2830966836734692, 1.2322809255102039, 1.1394445265306121, 1.1716930234693876, 1.0798338479591836, 0.9127283091836734, 0.8931838244897958, 0.9146827581632652, 1.0348814357142857, 1.0700616061224488, 1.075924951020408, 0.9909063459183672, 0.9097966367346938, 0.8658215469387753, 0.86191265, 0.8795026857142856, 0.8736393397959183, 0.8667987704081632, 0.8648443224489795, 0.868753219387755, 0.8560493040816326, 0.8052335469387755, 0.7827573897959182, 0.8902521520408162, 1.1120822479591836, 1.1032872295918366, 1.1120822479591836, 1.125763386734694, 1.1316267326530611, 1.1863513867346938, 1.1316267326530611, 1.101332781632653, 0.8931838244897958, 0.9381361397959184, 1.3886369979591835, 1.4980862091836735, 1.3671380642857143, 1.1658296775510202, 1.1062189020408162, 1.0045874846938774, 0.8882977040816326, 0.80132465, 0.7329189051020407, 0.7456228193877551, 0.7817801653061224, 0.7661445285714286, 0.775916819387755, 0.7915524071428571, 0.14267487142857144, 0.08990471428571428, -0.029316754081632652, -0.012703927551020408, 0.05765628469387755, 0.11238089591836734, 0.08404136326530612, 0.07231466632653061, 0.0869730418367347, -0.01759005306122449, 0.02247617857142857, 0.01563560306122449, -0.011726702040816326, -0.0009772255102040816, 0.010749477551020407, 0.009772251020408162, 0.003908901020408162, 0.005863351020408163, 0.0009772255102040816, -0.0029316755102040816, -0.03518010612244898, -0.01563560306122449, -0.0009772255102040816, -0.021498954081632653, -0.04886126020408163, -0.10260864183673468, 0.03127120612244898, 0.07231466632653061, -0.01856727857142857, -0.08110969081632652, -0.14169764795918366, -0.01563560306122449, 0.15635602346938776, 0.3947989795918367, 0.11726701734693877, -0.21108062857142854, -0.12410759897959182, 0.0752463387755102, 0.12410759897959182, 0.1661282775510204, 0.12117592653061224, -0.016612828571428567, 0.042997909183673466, 0.06058796326530612, 0.04495235714285714, 0.04886126020408163, 0.07133743571428572, 0.061565187755102044, 0.03811178163265306, 0.02052172857142857, -0.0830641387755102, -0.15831048367346937, -0.2130351020408163, -0.23453403469387754, -0.11922147857142856, -0.22867068979591834, -0.2579874408163265, -0.2980536826530612, -0.26385081020408163, -0.2022856112244898, -0.1358343020408163, -0.12508482346938776, -0.09381361734693877, -0.11433534489795917, -0.10456308979591837, -0.07817801122448978, -0.0635196357142857, -0.04983848469387755, -0.052770157142857134, -0.06254241224489795, -0.06547408469387754, -0.003908901020408162, 0.0009772255102040816, -0.02736230612244898, -0.03420288163265306, 0.03713455714285714, -0.01368115306122449, 0.011726702040816326, 0.08208691428571428, 0.05863350918367346, -0.08110969081632652, -0.23844295612244898, -0.3371426765306122, -0.5081570877551019, -0.38991285816326526, -0.33616545204081627, -0.11922147857142856, -0.11335812040816325, -0.10944922346938774, -0.12606204795918366, -0.12801649591836733, -0.06645131428571427, -0.05472461224489796, -0.09479084183673468, -0.10260864183673468, -0.08599581734693877, -0.0674285387755102, -0.03420288163265306, -0.026385078571428567, -0.036157332653061224, 
29, 1.0746126314119546, 0.8159830132653061, 0.8785254612244897, 0.9146827581632652, 0.9615896183673468, 0.9850429999999999, 1.0212002969387755, 1.1355356295918366, 1.370069737755102, 1.3378212408163264, 1.107196126530612, 1.0124052785714286, 0.9938380183673468, 1.101332781632653, 1.2000325265306122, 1.1316267326530611, 1.1111050234693878, 1.1052416785714285, 1.1042644540816327, 0.9899291214285714, 0.9508401520408163, 0.9039332918367347, 0.8902521520408162, 0.8208691346938775, 0.7778712683673469, 0.8032790979591836, 0.8316186010204081, 0.8228235826530611, 0.80132465, 0.7641900806122449, 0.7729850979591837, 0.8452997397959183, 0.9303183459183673, 0.9723390846938774, 1.0641982602040814, 1.1628980051020408, 1.2498709622448978, 1.2440076163265306, 1.2078503204081632, 1.1814652653061224, 1.0446536785714284, 1.0456309030612243, 1.0632210357142855, 1.166806902040816, 1.3417301377551019, 1.1541029867346937, 1.0935149877551018, 1.048562575510204, 1.0133825030612245, 0.8951382734693878, 0.808165219387755, 0.00195445, 0.050815709183673466, 0.0996769693877551, 0.11335812040816325, 0.07817801122448978, -0.009772251020408162, 0.01954450306122449, 0.032248430612244895, -0.03811178163265306, -0.061565187755102044, 0.09479084183673468, 0.16319660510204081, 0.08208691428571428, -0.025407854081632653, -0.06840576326530612, 0.021498954081632653, 0.09283639387755102, 0.1182442418367347, 0.05961073877551021, 0.03127120612244898, 0.023453404081632653, 0.04983848469387755, 0.061565187755102044, -0.01954450306122449, -0.02736230612244898, -0.016612828571428567, 0.0009772255102040816, 0.032248430612244895, 0.03420288163265306, 0.0029316755102040816, -0.06938298775510203, -0.05374738775510204, 0.0, 0.0830641387755102, 0.0244306306122449, -0.0830641387755102, 0.008795026530612244, 0.1387659744897959, 0.23844295612244898, 0.007817801020408162, -0.14951545408163264, -0.28046362244897954, -0.18567278673469387, 0.004886125510204081, 0.0996769693877551, 0.09088194489795919, 0.04495235714285714, 0.0283395306122449, 0.05472461224489796, 0.033225657142857135, 0.01368115306122449, 0.06645131428571427, 0.05765628469387755, 0.05179293265306122, 0.04104345714285714, 0.09674529081632652, 0.1788322051020408, -0.1837183387755102, -0.30000813163265305, -0.30000813163265305, -0.28632696836734695, -0.25407854387755097, -0.21792122346938775, -0.4231384826530612, -0.36841390102040816, -0.28632696836734695, -0.2550557683673469, -0.18469556224489794, -0.11726701734693877, -0.1153125693877551, -0.11433534489795917, -0.11238089591836734, -0.0635196357142857, -0.0674285387755102, -0.05570183571428571, -0.026385078571428567, 0.004886125510204081, 0.01954450306122449, 0.026385078571428567, 0.032248430612244895, 0.040066232653061216, -0.0009772255102040816, -0.026385078571428567, 0.0283395306122449, 0.11726701734693877, 0.11140367244897958, -0.02052172857142857, -0.05765628469387755, -0.39382175510204076, -0.4739541908163265, -0.4387741183673469, -0.4221612581632652, -0.2658052591836735, -0.13290262959183674, -0.12997094489795916, -0.11238089591836734, -0.08404136326530612, -0.052770157142857134, -0.03420288163265306, -0.03518010612244898, 
30, 1.1942394712560627, 0.747577268367347, 0.6606042142857143, 0.6713536806122449, 0.6948071112244897, 0.7690762010204081, 0.7602811836734693, 0.7602811836734693, 0.7456228193877551, 0.7612584071428571, 1.0339042122448978, 1.0700616061224488, 1.0446536785714284, 1.1521485387755102, 1.3642063918367346, 1.493200087755102, 1.294823374489796, 1.2635521989795917, 0.9293411214285714, 0.941067812244898, 1.2342353744897958, 1.161920780612245, 1.0563804663265306, 1.0593121387755102, 1.0729932785714285, 0.968430187755102, 0.8755937887755102, 0.8648443224489795, 0.853117631632653, 0.7808029408163265, 0.7563722867346938, 0.746600043877551, 0.7641900806122449, 0.7602811836734693, 0.746600043877551, 0.747577268367347, 0.7612584071428571, 0.8071879948979591, 0.9342272428571428, 1.068107157142857, 1.1433534234693878, 1.260620525510204, 1.3378212408163264, 1.2107819928571428, 1.2029641989795918, 1.1980780775510202, 1.153125763265306, 1.1306495081632653, 1.1560574357142857, 1.2215314591836732, 1.243030392857143, 0.033225657142857135, 0.046906809183673466, 0.08013246632653061, 0.08990471428571428, 0.06938298775510203, 0.05667906020408162, 0.03908900612244898, 0.03908900612244898, 0.05374738775510204, 0.13192540510204082, 0.07329189081632653, 0.06840576326530612, 0.15733325918367347, 0.16417382959183674, 0.02247617857142857, -0.07426911428571428, -0.14951545408163264, 0.0674285387755102, 0.34398327040816323, 0.13192540510204082, -0.0918591693877551, -0.0244306306122449, 0.05472461224489796, 0.1504926775510204, 0.07915524183673468, -0.04495235714285714, -0.04397513265306122, 0.021498954081632653, 0.06547408469387754, 0.05570183571428571, -0.0244306306122449, -0.016612828571428567, 0.0009772255102040816, 0.004886125510204081, 0.0029316755102040816, -0.025407854081632653, -0.0635196357142857, -0.046906809183673466, 0.05765628469387755, 0.1514699020408163, 0.08110969081632652, -0.05374738775510204, -0.029316754081632652, 0.06254241224489795, -0.025407854081632653, -0.0635196357142857, 0.0674285387755102, 0.1719916357142857, 0.14267487142857144, 0.03811178163265306, -0.05570183571428571, -0.06449686020408163, -0.050815709183673466, -0.040066232653061216, 0.01563560306122449, 0.01563560306122449, -0.0283395306122449, 0.021498954081632653, 0.09674529081632652, 0.0869730418367347, 0.033225657142857135, 0.12508482346938776, 0.2130351020408163, 0.08013246632653061, -0.20424005918367344, -0.26775970714285713, -0.5882895724489796, -0.3557099612244898, -0.08892749081632653, -0.3107575979591837, -0.3742772459183673, -0.3772089193877551, -0.28730419183673467, -0.24039740510204077, -0.21108062857142854, -0.1798094295918367, -0.1798094295918367, -0.13974319897959184, -0.09772252040816326, -0.08404136326530612, -0.06449686020408163, -0.06938298775510203, -0.052770157142857134, -0.03420288163265306, -0.0244306306122449, 0.004886125510204081, 0.06547408469387754, 0.08990471428571428, 0.07231466632653061, 0.06840576326530612, 0.10749477551020407, -0.06645131428571427, -0.269714156122449, -0.3342110040816326, -0.2941447857142857, -0.4143434642857143, -0.44366023979591834, -0.30587147653061225, -0.2394201806122449, -0.1348570775510204, 
31, 1.2286360539559713, 1.2273948051020407, 1.107196126530612, 1.0524715693877549, 0.9420450367346939, 0.832595825510204, 0.7886207346938775, 0.7006704561224489, 0.6928526622448979, 0.6801487479591837, 0.6537636448979591, 0.6420369540816326, 0.6459458510204081, 0.6645131112244897, 0.8042563224489795, 1.031949763265306, 1.177556368367347, 1.2068730959183673, 1.225440356122449, 1.3739786346938774, 1.3896142224489794, 1.1462850959183672, 1.2342353744897958, 0.8785254612244897, 1.025109193877551, 1.3309806704081633, 1.3524797010204082, 1.285051131632653, 1.1179455928571427, 1.0984011081632652, 0.9742935336734694, 0.8609354255102041, 0.7632128561224489, 0.7182604928571429, 0.6869893173469387, 0.6850348683673468, 0.7094654744897959, 0.7544178377551021, 0.793506856122449, 0.8120741163265306, 0.8218463581632652, 0.8277097040816326, 0.8638670979591836, 0.9899291214285714, 1.1316267326530611, 1.1834197142857141, 1.2782105622448978, 1.3778875316326529, 1.4023181367346937, 1.1834197142857141, 1.1873286112244896, -0.05179293265306122, 0.003908901020408162, 0.040066232653061216, 0.08013246632653061, 0.03713455714285714, 0.0283395306122449, 0.07329189081632653, 0.09576806632653061, 0.0918591693877551, 0.06645131428571427, 0.04495235714285714, 0.05961073877551021, 0.07915524183673468, 0.09479084183673468, 0.09088194489795919, -0.06254241224489795, 0.032248430612244895, 0.30391702857142855, 0.346914943877551, -0.07915524183673468, -0.19739948979591834, -0.323461537755102, 0.03811178163265306, 0.2022856112244898, 0.323461537755102, 0.14560655714285714, 0.0869730418367347, 0.04788403265306122, 0.08208691428571428, 0.08795026632653061, 0.01759005306122449, 0.0029316755102040816, 0.007817801020408162, -0.009772251020408162, -0.03029398163265306, -0.021498954081632653, 0.01368115306122449, 0.0283395306122449, 0.011726702040816326, -0.009772251020408162, -0.06840576326530612, -0.09479084183673468, 0.00195445, 0.06547408469387754, 0.03127120612244898, -0.08892749081632653, 0.11335812040816325, 0.45050080918367347, -0.2482151989795918, -0.3557099612244898, -0.1153125693877551, -0.08990471428571428, -0.08404136326530612, -0.06938298775510203, -0.06058796326530612, -0.06840576326530612, -0.046906809183673466, -0.04397513265306122, -0.02052172857142857, 0.008795026530612244, 0.01954450306122449, -0.0009772255102040816, 0.008795026530612244, 0.14072042346938773, -0.01856727857142857, 0.08501859387755101, 0.24235185306122448, 0.29023588877551015, 0.0918591693877551, -0.3019625795918367, -0.41922958571428565, -0.6801487479591837, -0.23453403469387754, -0.1544015744897959, -0.3996851010204081, -0.3977306520408163, -0.3576644102040816, -0.2794863979591837, -0.2130351020408163, -0.16808272653061224, -0.16319660510204081, -0.12703927244897958, -0.08795026632653061, -0.0674285387755102, -0.06547408469387754, -0.04495235714285714, -0.00195445, 0.005863351020408163, 0.011726702040816326, 0.01954450306122449, 0.025407854081632653, 0.032248430612244895, 0.003908901020408162, 0.007817801020408162, 0.01856727857142857, 0.007817801020408162, -0.3918673071428571, -0.49643039693877544, -0.261896337755102, -0.28730419183673467, 
32, 1.21520816658829, 1.1873286112244896, 1.1707157989795918, 1.1140366959183674, 1.23325815, 1.1834197142857141, 1.0339042122448978, 0.9938380183673468, 0.9244549999999999, 0.8345502734693876, 0.7553950622448979, 0.6772170744897958, 0.6762398510204081, 0.7036021295918367, 0.7436683714285713, 0.7280327836734694, 0.6987160081632653, 0.7348733530612245, 0.8648443224489795, 0.9400905877551019, 0.9997013632653061, 1.0944922112244897, 1.168761351020408, 1.333912343877551, 1.3974320163265306, 1.432612087755102, 1.2127364408163264, 1.1707157989795918, 1.2811422346938774, 1.2586660775510203, 1.048562575510204, 1.0641982602040814, 1.1140366959183674, 1.0641982602040814, 0.9361816908163264, 0.8843888071428571, 0.8023018734693877, 0.7563722867346938, 0.7358505775510203, 0.7016476806122448, 0.7260783346938775, 0.746600043877551, 0.7260783346938775, 0.729987231632653, 0.7964385285714285, 0.9117510857142855, 0.9234777765306121, 1.0788566234693877, 1.1648524540816327, 1.1951464051020406, 1.252802731632653, -0.3557099612244898, -0.14462933265306122, 0.12019870204081631, 0.19935393775510202, 0.0635196357142857, -0.009772251020408162, 0.004886125510204081, 0.03029398163265306, 0.03811178163265306, 0.032248430612244895, 0.011726702040816326, 0.02736230612244898, 0.08599581734693877, 0.10163141734693877, 0.05570183571428571, 0.05472461224489796, 0.08013246632653061, 0.10749477551020407, 0.046906809183673466, 0.0, 0.11042644795918366, 0.19544504081632652, 0.2980536826530612, 0.09088194489795919, -0.12801649591836733, -0.10847199897959184, 0.14951545408163264, 0.13192540510204082, -0.02247617857142857, -0.061565187755102044, -0.010749477551020407, 0.05179293265306122, 0.07915524183673468, 0.02736230612244898, 0.0029316755102040816, -0.006840576530612245, -0.00195445, -0.01856727857142857, -0.0635196357142857, -0.0830641387755102, -0.08013246632653061, -0.01954450306122449, -0.01856727857142857, -0.05667906020408162, 0.03420288163265306, 0.08892749081632653, 0.08501859387755101, -0.029316754081632652, -0.09283639387755102, -0.09772252040816326, -0.28730419183673467, -0.28632696836734695, -0.21401232653061222, -0.20521728367346936, -0.15733325918367347, -0.14169764795918366, -0.12606204795918366, -0.07720078775510204, -0.06938298775510203, -0.04788403265306122, 0.006840576530612245, 0.0029316755102040816, -0.003908901020408162, 0.02052172857142857, 0.006840576530612245, 0.052770157142857134, 0.06547408469387754, -0.05961073877551021, -0.07426911428571428, -0.01368115306122449, 0.27264582857142855, 0.2706913806122449, 0.11042644795918366, -0.3478921673469388, -0.49349872448979587, -0.2716686040816326, -0.20130838673469387, -0.17296885918367347, -0.5013165183673469, -0.43486522142857137, -0.3146665193877551, -0.2130351020408163, -0.18469556224489794, -0.19837671428571427, -0.1778549806122449, -0.12703927244897958, -0.09772252040816326, -0.09088194489795919, -0.08892749081632653, -0.08110969081632652, -0.07133743571428572, -0.036157332653061224, 0.016612828571428567, 0.06254241224489795, 0.05570183571428571, 0.033225657142857135, -0.036157332653061224, 0.01759005306122449, 0.0029316755102040816, -0.1182442418367347, 
33, 1.172749514959858, 1.1961236295918365, 1.1580118836734694, 1.1677841265306121, 1.1628980051020408, 1.1189228173469385, 1.1804880418367347, 1.1883058357142857, 1.1296722836734694, 0.9811341030612244, 0.8824343581632652, 0.8365047224489796, 0.737805025510204, 0.6928526622448979, 0.6723309051020407, 0.6791715234693877, 0.7065338020408163, 0.7661445285714286, 0.6938298867346938, 0.6889437653061224, 0.8658215469387753, 1.084719969387755, 1.0827655204081632, 1.0700616061224488, 1.1355356295918366, 1.4707239306122448, 1.2811422346938774, 1.4316348642857142, 1.1433534234693878, 0.9439994846938775, 1.1023100051020407, 1.2801650102040816, 1.1413989744897959, 1.0358586602040816, 1.0104508306122448, 1.025109193877551, 0.9254322244897958, 0.86191265, 0.7680989775510203, 0.7436683714285713, 0.7348733530612245, 0.7729850979591837, 0.809142443877551, 0.809142443877551, 0.8110968918367346, 0.7778712683673469, 0.7172832683673469, 0.7749395469387754, 0.9449767091836734, 1.0808110724489794, 1.1003555571428572, 0.10065419285714286, -0.19642226530612242, -0.16905996224489794, 0.046906809183673466, 0.13094816938775508, 0.11140367244897958, -0.04788403265306122, -0.03420288163265306, 0.03811178163265306, 0.04104345714285714, 0.07231466632653061, 0.09283639387755102, 0.0752463387755102, 0.06547408469387754, 0.08404136326530612, 0.09381361734693877, 0.0918591693877551, 0.0830641387755102, 0.0752463387755102, 0.052770157142857134, 0.04495235714285714, 0.009772251020408162, 0.16026493265306122, 0.2472379744897959, 0.20130838673469387, -0.0009772255102040816, -0.09283639387755102, -0.18176388979591837, 0.025407854081632653, 0.22378456836734695, 0.1778549806122449, -0.010749477551020407, -0.036157332653061224, 0.010749477551020407, 0.08404136326530612, 0.04983848469387755, 0.016612828571428567, -0.003908901020408162, 0.01954450306122449, 0.010749477551020407, -0.0283395306122449, -0.03713455714285714, -0.03713455714285714, -0.0029316755102040816, -0.0029316755102040816, -0.050815709183673466, -0.0635196357142857, 0.0, 0.06840576326530612, 0.07622356326530612, -0.28730419183673467, -0.32639321020408163, -0.315643743877551, -0.2501696469387755, -0.2101034051020408, -0.12508482346938776, -0.1807866530612245, -0.16026493265306122, -0.0752463387755102, 0.01954450306122449, 0.03713455714285714, 0.029316754081632652, 0.01954450306122449, -0.023453404081632653, 0.0, 0.005863351020408163, -0.01368115306122449, -0.0674285387755102, 0.0, 0.1387659744897959, -0.010749477551020407, 0.0009772255102040816, 0.12117592653061224, 0.23257958673469384, 0.02052172857142857, 0.004886125510204081, -0.5198837785714285, -0.6088112816326531, -0.3283476581632653, -0.1807866530612245, -0.46809084591836736, -0.3693911255102041, -0.3322565551020408, -0.2218301193877551, -0.1387659744897959, -0.12899372040816326, -0.12313037551020409, -0.1153125693877551, -0.08990471428571428, -0.07133743571428572, -0.06058796326530612, -0.03029398163265306, -0.03029398163265306, 0.008795026530612244, -0.01856727857142857, -0.04592958469387755, -0.03518010612244898, 0.016612828571428567, 0.0283395306122449, 0.0635196357142857, 
34, 1.1959634266573642, 1.0935149877551018, 1.0270636418367347, 1.1277178357142856, 1.2264175806122448, 1.2713699928571427, 1.0172913999999997, 1.069084381632653, 1.2782105622448978, 1.454111118367347, 1.299709494897959, 1.124786163265306, 1.0387903326530612, 0.9694074122448979, 0.8726621163265306, 0.8110968918367346, 0.776894043877551, 0.7739623224489796, 0.7817801653061224, 0.729987231632653, 0.6547408683673469, 0.6664675591836734, 0.7553950622448979, 1.0026330367346938, 1.0143597275510203, 0.9811341030612244, 1.0182686244897958, 1.1570346602040815, 1.4072042581632653, 1.3358667918367346, 1.1316267326530611, 1.0661527091836733, 1.0632210357142855, 1.252802731632653, 1.3055728408163265, 1.2215314591836732, 1.1658296775510202, 1.1218544897959182, 0.9967696908163265, 0.8775482367346938, 0.8267324795918367, 0.816960237755102, 0.8052335469387755, 0.7729850979591837, 0.7593039591836734, 0.7495317163265305, 0.746600043877551, 0.7739623224489796, 0.8423680673469387, 0.8423680673469387, 0.8912293765306121, 0.0009772255102040816, -0.17296885918367347, -0.10847199897959184, 0.2843725193877551, 0.5355194153061223, 0.28730419183673467, -0.4250929306122449, -0.600993487755102, -0.05863350918367346, 0.16319660510204081, 0.13974319897959184, 0.09283639387755102, 0.03127120612244898, 0.011726702040816326, 0.02247617857142857, 0.05961073877551021, 0.04983848469387755, 0.03811178163265306, 0.04495235714285714, 0.06840576326530612, 0.05863350918367346, 0.03811178163265306, 0.03127120612244898, 0.005863351020408163, 0.17590053265306121, 0.21205785306122446, 0.18958168367346936, -0.04886126020408163, -0.18469556224489794, -0.04788403265306122, 0.016612828571428567, 0.10260864183673468, 0.05961073877551021, 0.009772251020408162, 0.00195445, 0.0830641387755102, 0.07915524183673468, 0.01954450306122449, -0.014658377551020408, -0.006840576530612245, 0.016612828571428567, 0.014658377551020408, -0.011726702040816326, -0.02052172857142857, -0.025407854081632653, -0.01368115306122449, -0.023453404081632653, -0.06840576326530612, -0.052770157142857134, -0.03029398163265306, 0.10944922346938774, 0.11140367244897958, 0.050815709183673466, -0.3987078765306122, -0.5980618142857143, -0.6264013663265305, -0.3518010642857142, -0.22476179285714287, -0.08110969081632652, -0.0869730418367347, -0.08404136326530612, -0.07231466632653061, -0.006840576530612245, -0.01856727857142857, -0.016612828571428567, -0.01954450306122449, -0.03127120612244898, -0.032248430612244895, -0.06058796326530612, -0.003908901020408162, 0.025407854081632653, 0.1661282775510204, 0.08208691428571428, 0.08795026632653061, 0.1807866530612245, 0.18958168367346936, 0.10554031428571427, -0.2159667744897959, -0.30880314999999997, -0.33811992551020403, -0.300985356122449, -0.23355681020408162, -0.3703683489795918, -0.3537555132653061, -0.2785091744897959, -0.1837183387755102, -0.1719916357142857, -0.1837183387755102, -0.17590053265306121, -0.10847199897959184, -0.042997909183673466, -0.05863350918367346, -0.07426911428571428, -0.06938298775510203, -0.03713455714285714, -0.007817801020408162, 0.026385078571428567, 0.046906809183673466, -0.011726702040816326, 0.0029316755102040816, 
35, 1.12830725625066, 0.9899291214285714, 1.083742744897959, 1.2107819928571428, 1.2586660775510203, 1.3319578948979591, 1.1951464051020406, 1.1492167683673469, 1.024131969387755, 0.9772252061224489, 1.0896060908163265, 1.3163223071428571, 1.26159775, 1.1394445265306121, 1.0944922112244897, 1.041722006122449, 0.9166372061224488, 0.783734613265306, 0.7104426989795918, 0.6899209897959183, 0.7192377163265306, 0.7671217530612244, 0.7690762010204081, 0.7270555591836735, 0.7104426989795918, 0.8218463581632652, 0.9127283091836734, 1.0964466602040814, 1.1150139204081633, 1.1277178357142856, 1.285051131632653, 1.3397756887755101, 1.23325815, 1.2723472163265306, 1.1365128540816325, 1.0163141755102039, 1.1443306479591837, 1.1580118836734694, 1.0426992295918365, 1.061266587755102, 1.083742744897959, 1.0270636418367347, 0.9254322244897958, 0.840413619387755, 0.8140285642857142, 0.7690762010204081, 0.7485544928571428, 0.7915524071428571, 0.8423680673469387, 0.8257552551020407, 0.8189146857142857, 0.0244306306122449, 0.04495235714285714, -0.13387985408163267, -0.1348570775510204, 0.09576806632653061, -0.003908901020408162, -0.0918591693877551, -0.0674285387755102, 0.03029398163265306, 0.01368115306122449, 0.008795026530612244, 0.04202068163265306, 0.08599581734693877, 0.06840576326530612, 0.04886126020408163, 0.03420288163265306, 0.08110969081632652, 0.08599581734693877, 0.08404136326530612, 0.13094816938775508, 0.13387985408163267, 0.10065419285714286, 0.09479084183673468, 0.09381361734693877, 0.09479084183673468, 0.0752463387755102, -0.04592958469387755, 0.046906809183673466, 0.20717173163265304, 0.3029398040816326, 0.2706913806122449, 0.07133743571428572, -0.1807866530612245, -0.15537879897959184, 0.023453404081632653, 0.05863350918367346, 0.01954450306122449, 0.04983848469387755, 0.0752463387755102, 0.08013246632653061, 0.052770157142857134, 0.029316754081632652, 0.008795026530612244, 0.009772251020408162, 0.0244306306122449, 0.006840576530612245, -0.023453404081632653, -0.026385078571428567, -0.009772251020408162, -0.00195445, -0.0635196357142857, 0.006840576530612245, 0.01954450306122449, -0.08795026632653061, -0.2267162408163265, -0.2970764591836734, -0.3576644102040816, -0.354732737755102, -0.2061945081632653, -0.16124215612244897, -0.0996769693877551, -0.10163141734693877, -0.1807866530612245, -0.16808272653061224, -0.12703927244897958, -0.08990471428571428, -0.03713455714285714, -0.04104345714285714, -0.052770157142857134, 0.00195445, 0.0, -0.009772251020408162, -0.032248430612244895, 0.014658377551020408, 0.04104345714285714, -0.0283395306122449, 0.004886125510204081, 0.09772252040816326, 0.2022856112244898, 0.14169764795918366, 0.05961073877551021, -0.12117592653061224, -0.4974076214285714, -0.3918673071428571, -0.2159667744897959, -0.3908900826530612, -0.40359399795918366, -0.33811992551020403, -0.18860445918367344, -0.1358343020408163, -0.13778875102040813, -0.15635602346938776, -0.14267487142857144, -0.14169764795918366, -0.12313037551020409, -0.07720078775510204, -0.04983848469387755, -0.046906809183673466, -0.008795026530612244, -0.006840576530612245, 
36, 1.105803822091545, 0.7778712683673469, 0.7710306499999999, 0.968430187755102, 1.0456309030612243, 1.0671299326530612, 1.0720160540816326, 1.0935149877551018, 1.1638752295918366, 1.323162876530612, 1.3055728408163265, 1.0182686244897958, 1.0446536785714284, 1.060289363265306, 1.2440076163265306, 1.3221856530612244, 1.279187786734694, 1.1677841265306121, 1.075924951020408, 0.9830885520408164, 0.9420450367346939, 0.8501858612244898, 0.7446455959183673, 0.6987160081632653, 0.7534406132653061, 0.7680989775510203, 0.784711837755102, 0.747577268367347, 0.7211921653061224, 0.8120741163265306, 0.9703846367346938, 0.9948152428571428, 1.007519157142857, 1.0661527091836733, 1.1599663326530611, 1.2225086836734693, 1.2420531683673468, 1.252802731632653, 1.301663943877551, 1.0984011081632652, 1.0974238846938775, 1.1443306479591837, 1.168761351020408, 1.148239544897959, 1.1238089387755101, 1.107196126530612, 0.9606123938775509, 0.9107738612244897, 0.8267324795918367, 0.775916819387755, 0.7690762010204081, -0.010749477551020407, -0.036157332653061224, -0.05961073877551021, -0.023453404081632653, 0.05179293265306122, 0.12313037551020409, 0.007817801020408162, -0.15733325918367347, 0.14365209591836733, 0.22085289591836732, 0.0869730418367347, 0.0244306306122449, -0.025407854081632653, -0.06254241224489795, -0.01368115306122449, 0.06254241224489795, 0.061565187755102044, 0.0703602112244898, 0.07231466632653061, 0.07622356326530612, 0.08208691428571428, 0.07817801122448978, 0.07817801122448978, 0.0918591693877551, 0.0869730418367347, 0.07817801122448978, 0.0752463387755102, 0.07426911428571428, 0.09479084183673468, 0.025407854081632653, 0.0009772255102040816, 0.03420288163265306, 0.18176388979591837, 0.2970764591836734, 0.1358343020408163, 0.04886126020408163, -0.0918591693877551, -0.25310131938775504, -0.1592877081632653, 0.19251335612244896, 0.20814895612244896, 0.11140367244897958, 0.021498954081632653, -0.016612828571428567, 0.05374738775510204, 0.03713455714285714, 0.01856727857142857, -0.014658377551020408, -0.010749477551020407, -0.01954450306122449, -0.014658377551020408, 0.03029398163265306, 0.009772251020408162, -0.032248430612244895, -0.07329189081632653, 0.008795026530612244, 0.046906809183673466, -0.0029316755102040816, -0.1475610051020408, -0.22964791326530612, -0.2941447857142857, -0.3478921673469388, -0.36548222857142854, -0.1837183387755102, -0.12313037551020409, -0.10065419285714286, -0.11140367244897958, -0.07622356326530612, -0.0752463387755102, -0.07133743571428572, -0.0703602112244898, -0.06449686020408163, -0.04983848469387755, -0.07231466632653061, -0.05863350918367346, -0.009772251020408162, -0.0283395306122449, -0.04202068163265306, -0.00195445, -0.0918591693877551, -0.04495235714285714, 0.11335812040816325, 0.2472379744897959, 0.22769346530612242, -0.010749477551020407, -0.07133743571428572, -0.3048942530612245, -0.5492005540816326, -0.30587147653061225, -0.2570102163265306, -0.34398327040816323, -0.2941447857142857, -0.2482151989795918, -0.2159667744897959, -0.10847199897959184, -0.11433534489795917, -0.12801649591836733, -0.1387659744897959, -0.11140367244897958, -0.07720078775510204, 
